[
  {
    "rt": 9068,
    "stimulus": "<div class='nc-inst'><h2>正式测试（3 个 Session）</h2><p>本版本共 <strong>3</strong> 个正式 Session：<strong>前两个</strong>为纯导航或纯合成块（取决于您选择的顺序）。</p><p><strong>每个单任务 Session 的正式试次前</strong>，会先进行与<strong>该任务</strong>对应的自由探索练习；<strong>Session 3 为混合试次</strong>（导航与合成交替，不再单独加练习块）。</p><p>完成<strong>纯导航</strong>或<strong>纯合成</strong> Session 后，将各进行一段<strong>书面答题</strong>（可达容易程度、动作组整体感、中转报告）；<strong>全部 Session 结束后</strong>为<strong>空间摆放式地图还原</strong>。</p><p>各 Session 开始前有简要说明；试次进度在界面顶部显示。</p><p class='nc-inst-hint'>按 <strong>空格</strong> 开始（接下来将进入 Session 1 前的相关阶段）。</p></div>",
    "response": " ",
    "screen_id": "mix_pre_main_intro",
    "trial_type": "html-keyboard-response",
    "trial_index": 0,
    "time_elapsed": 9070,
    "internal_node_id": "0.0-0.0",
    "participant_id": "003",
    "experiment_order": "navigation-first"
  },
  {
    "value": {
      "phase": "exploration",
      "domain": "navigation",
      "completed": true,
      "exploration_skipped": false,
      "skip_reason": null,
      "visit_counts": {
        "1": 5,
        "2": 3,
        "3": 7,
        "4": 2,
        "5": 5,
        "6": 12,
        "7": 5,
        "8": 8,
        "9": 18
      },
      "steps": [
        {
          "step": 1,
          "from_code": 1,
          "key": "w",
          "valid": true,
          "mode": "grid",
          "direction": "快速巴士(W)·角点顺时针",
          "dir_code": "cw",
          "to_code": 3,
          "rt_ms": 9637
        },
        {
          "step": 2,
          "from_code": 3,
          "key": "w",
          "valid": true,
          "mode": "grid",
          "direction": "快速巴士(W)·角点顺时针",
          "dir_code": "cw",
          "to_code": 9,
          "rt_ms": 7676
        },
        {
          "step": 3,
          "from_code": 9,
          "key": "w",
          "valid": true,
          "mode": "grid",
          "direction": "快速巴士(W)·角点顺时针",
          "dir_code": "cw",
          "to_code": 7,
          "rt_ms": 4030
        },
        {
          "step": 4,
          "from_code": 7,
          "key": "w",
          "valid": true,
          "mode": "grid",
          "direction": "快速巴士(W)·角点顺时针",
          "dir_code": "cw",
          "to_code": 1,
          "rt_ms": 3760
        },
        {
          "step": 5,
          "from_code": 1,
          "key": "w",
          "valid": true,
          "mode": "grid",
          "direction": "快速巴士(W)·角点顺时针",
          "dir_code": "cw",
          "to_code": 3,
          "rt_ms": 3794
        },
        {
          "step": 6,
          "from_code": 3,
          "key": "a",
          "valid": false,
          "to_code": null,
          "rt_ms": 4050,
          "mode": "grid",
          "direction": "地铁(A)·上",
          "dir_code": "up"
        },
        {
          "step": 6,
          "from_code": 3,
          "key": "w",
          "valid": true,
          "mode": "grid",
          "direction": "快速巴士(W)·角点顺时针",
          "dir_code": "cw",
          "to_code": 9,
          "rt_ms": 9723
        },
        {
          "step": 7,
          "from_code": 9,
          "key": "w",
          "valid": true,
          "mode": "grid",
          "direction": "快速巴士(W)·角点顺时针",
          "dir_code": "cw",
          "to_code": 7,
          "rt_ms": 7292
        },
        {
          "step": 8,
          "from_code": 7,
          "key": "w",
          "valid": true,
          "mode": "grid",
          "direction": "快速巴士(W)·角点顺时针",
          "dir_code": "cw",
          "to_code": 1,
          "rt_ms": 4358
        },
        {
          "step": 9,
          "from_code": 1,
          "key": "w",
          "valid": true,
          "mode": "grid",
          "direction": "快速巴士(W)·角点顺时针",
          "dir_code": "cw",
          "to_code": 3,
          "rt_ms": 3949
        },
        {
          "step": 10,
          "from_code": 3,
          "key": "d",
          "valid": true,
          "mode": "grid",
          "direction": "地铁(D)·下",
          "dir_code": "down",
          "to_code": 6,
          "rt_ms": 5140
        },
        {
          "step": 11,
          "from_code": 6,
          "key": "d",
          "valid": true,
          "mode": "grid",
          "direction": "地铁(D)·下",
          "dir_code": "down",
          "to_code": 9,
          "rt_ms": 11760
        },
        {
          "step": 12,
          "from_code": 9,
          "key": "d",
          "valid": false,
          "to_code": null,
          "rt_ms": 8378,
          "mode": "grid",
          "direction": "地铁(D)·下",
          "dir_code": "down"
        },
        {
          "step": 12,
          "from_code": 9,
          "key": "q",
          "valid": true,
          "mode": "grid",
          "direction": "公交(Q)·左",
          "dir_code": "left",
          "to_code": 8,
          "rt_ms": 4241
        },
        {
          "step": 13,
          "from_code": 8,
          "key": "q",
          "valid": true,
          "mode": "grid",
          "direction": "公交(Q)·左",
          "dir_code": "left",
          "to_code": 7,
          "rt_ms": 12821
        },
        {
          "step": 14,
          "from_code": 7,
          "key": "w",
          "valid": true,
          "mode": "grid",
          "direction": "快速巴士(W)·角点顺时针",
          "dir_code": "cw",
          "to_code": 1,
          "rt_ms": 6805
        },
        {
          "step": 15,
          "from_code": 1,
          "key": "e",
          "valid": true,
          "mode": "grid",
          "direction": "公交(E)·右",
          "dir_code": "right",
          "to_code": 2,
          "rt_ms": 7646
        },
        {
          "step": 16,
          "from_code": 2,
          "key": "e",
          "valid": true,
          "mode": "grid",
          "direction": "公交(E)·右",
          "dir_code": "right",
          "to_code": 3,
          "rt_ms": 7649
        },
        {
          "step": 17,
          "from_code": 3,
          "key": "d",
          "valid": true,
          "mode": "grid",
          "direction": "地铁(D)·下",
          "dir_code": "down",
          "to_code": 6,
          "rt_ms": 9096
        },
        {
          "step": 18,
          "from_code": 6,
          "key": "d",
          "valid": true,
          "mode": "grid",
          "direction": "地铁(D)·下",
          "dir_code": "down",
          "to_code": 9,
          "rt_ms": 13439
        },
        {
          "step": 19,
          "from_code": 9,
          "key": "d",
          "valid": false,
          "to_code": null,
          "rt_ms": 5869,
          "mode": "grid",
          "direction": "地铁(D)·下",
          "dir_code": "down"
        },
        {
          "step": 19,
          "from_code": 9,
          "key": "w",
          "valid": true,
          "mode": "grid",
          "direction": "快速巴士(W)·角点顺时针",
          "dir_code": "cw",
          "to_code": 7,
          "rt_ms": 1705
        },
        {
          "step": 20,
          "from_code": 7,
          "key": "d",
          "valid": false,
          "to_code": null,
          "rt_ms": 3105,
          "mode": "grid",
          "direction": "地铁(D)·下",
          "dir_code": "down"
        },
        {
          "step": 20,
          "from_code": 7,
          "key": "e",
          "valid": true,
          "mode": "grid",
          "direction": "公交(E)·右",
          "dir_code": "right",
          "to_code": 8,
          "rt_ms": 2413
        },
        {
          "step": 21,
          "from_code": 8,
          "key": "a",
          "valid": true,
          "mode": "grid",
          "direction": "地铁(A)·上",
          "dir_code": "up",
          "to_code": 5,
          "rt_ms": 13969
        },
        {
          "step": 22,
          "from_code": 5,
          "key": "q",
          "valid": true,
          "mode": "grid",
          "direction": "公交(Q)·左",
          "dir_code": "left",
          "to_code": 4,
          "rt_ms": 16285
        },
        {
          "step": 23,
          "from_code": 4,
          "key": "e",
          "valid": true,
          "mode": "grid",
          "direction": "公交(E)·右",
          "dir_code": "right",
          "to_code": 5,
          "rt_ms": 7044
        },
        {
          "step": 24,
          "from_code": 5,
          "key": "a",
          "valid": true,
          "mode": "grid",
          "direction": "地铁(A)·上",
          "dir_code": "up",
          "to_code": 2,
          "rt_ms": 9856
        },
        {
          "step": 25,
          "from_code": 2,
          "key": "d",
          "valid": true,
          "mode": "grid",
          "direction": "地铁(D)·下",
          "dir_code": "down",
          "to_code": 5,
          "rt_ms": 8847
        },
        {
          "step": 26,
          "from_code": 5,
          "key": "e",
          "valid": true,
          "mode": "grid",
          "direction": "公交(E)·右",
          "dir_code": "right",
          "to_code": 6,
          "rt_ms": 10125
        },
        {
          "step": 27,
          "from_code": 6,
          "key": "a",
          "valid": true,
          "mode": "grid",
          "direction": "地铁(A)·上",
          "dir_code": "up",
          "to_code": 3,
          "rt_ms": 8930
        },
        {
          "step": 28,
          "from_code": 3,
          "key": "d",
          "valid": true,
          "mode": "grid",
          "direction": "地铁(D)·下",
          "dir_code": "down",
          "to_code": 6,
          "rt_ms": 6086
        },
        {
          "step": 29,
          "from_code": 6,
          "key": "a",
          "valid": true,
          "mode": "grid",
          "direction": "地铁(A)·上",
          "dir_code": "up",
          "to_code": 3,
          "rt_ms": 8105
        },
        {
          "step": 30,
          "from_code": 3,
          "key": "w",
          "valid": true,
          "mode": "grid",
          "direction": "快速巴士(W)·角点顺时针",
          "dir_code": "cw",
          "to_code": 9,
          "rt_ms": 3195
        },
        {
          "step": 31,
          "from_code": 9,
          "key": "d",
          "valid": false,
          "to_code": null,
          "rt_ms": 2296,
          "mode": "grid",
          "direction": "地铁(D)·下",
          "dir_code": "down"
        },
        {
          "step": 31,
          "from_code": 9,
          "key": "q",
          "valid": true,
          "mode": "grid",
          "direction": "公交(Q)·左",
          "dir_code": "left",
          "to_code": 8,
          "rt_ms": 4976
        },
        {
          "step": 32,
          "from_code": 8,
          "key": "a",
          "valid": true,
          "mode": "grid",
          "direction": "地铁(A)·上",
          "dir_code": "up",
          "to_code": 5,
          "rt_ms": 16616
        },
        {
          "step": 33,
          "from_code": 5,
          "key": "e",
          "valid": true,
          "mode": "grid",
          "direction": "公交(E)·右",
          "dir_code": "right",
          "to_code": 6,
          "rt_ms": 5071
        },
        {
          "step": 34,
          "from_code": 6,
          "key": "q",
          "valid": true,
          "mode": "grid",
          "direction": "公交(Q)·左",
          "dir_code": "left",
          "to_code": 5,
          "rt_ms": 14689
        },
        {
          "step": 35,
          "from_code": 5,
          "key": "a",
          "valid": true,
          "mode": "grid",
          "direction": "地铁(A)·上",
          "dir_code": "up",
          "to_code": 2,
          "rt_ms": 5188
        },
        {
          "step": 36,
          "from_code": 2,
          "key": "e",
          "valid": true,
          "mode": "grid",
          "direction": "公交(E)·右",
          "dir_code": "right",
          "to_code": 3,
          "rt_ms": 6611
        },
        {
          "step": 37,
          "from_code": 3,
          "key": "w",
          "valid": true,
          "mode": "grid",
          "direction": "快速巴士(W)·角点顺时针",
          "dir_code": "cw",
          "to_code": 9,
          "rt_ms": 2530
        },
        {
          "step": 38,
          "from_code": 9,
          "key": "a",
          "valid": true,
          "mode": "grid",
          "direction": "地铁(A)·上",
          "dir_code": "up",
          "to_code": 6,
          "rt_ms": 3212
        },
        {
          "step": 39,
          "from_code": 6,
          "key": "d",
          "valid": true,
          "mode": "grid",
          "direction": "地铁(D)·下",
          "dir_code": "down",
          "to_code": 9,
          "rt_ms": 2879
        },
        {
          "step": 40,
          "from_code": 9,
          "key": "a",
          "valid": true,
          "mode": "grid",
          "direction": "地铁(A)·上",
          "dir_code": "up",
          "to_code": 6,
          "rt_ms": 2055
        },
        {
          "step": 41,
          "from_code": 6,
          "key": "d",
          "valid": true,
          "mode": "grid",
          "direction": "地铁(D)·下",
          "dir_code": "down",
          "to_code": 9,
          "rt_ms": 2100
        },
        {
          "step": 42,
          "from_code": 9,
          "key": "a",
          "valid": true,
          "mode": "grid",
          "direction": "地铁(A)·上",
          "dir_code": "up",
          "to_code": 6,
          "rt_ms": 1884
        },
        {
          "step": 43,
          "from_code": 6,
          "key": "d",
          "valid": true,
          "mode": "grid",
          "direction": "地铁(D)·下",
          "dir_code": "down",
          "to_code": 9,
          "rt_ms": 755
        },
        {
          "step": 44,
          "from_code": 9,
          "key": "a",
          "valid": true,
          "mode": "grid",
          "direction": "地铁(A)·上",
          "dir_code": "up",
          "to_code": 6,
          "rt_ms": 550
        },
        {
          "step": 45,
          "from_code": 6,
          "key": "d",
          "valid": true,
          "mode": "grid",
          "direction": "地铁(D)·下",
          "dir_code": "down",
          "to_code": 9,
          "rt_ms": 394
        },
        {
          "step": 46,
          "from_code": 9,
          "key": "a",
          "valid": true,
          "mode": "grid",
          "direction": "地铁(A)·上",
          "dir_code": "up",
          "to_code": 6,
          "rt_ms": 552
        },
        {
          "step": 47,
          "from_code": 6,
          "key": "d",
          "valid": true,
          "mode": "grid",
          "direction": "地铁(D)·下",
          "dir_code": "down",
          "to_code": 9,
          "rt_ms": 11138
        },
        {
          "step": 48,
          "from_code": 9,
          "key": "a",
          "valid": true,
          "mode": "grid",
          "direction": "地铁(A)·上",
          "dir_code": "up",
          "to_code": 6,
          "rt_ms": 321
        },
        {
          "step": 49,
          "from_code": 6,
          "key": "d",
          "valid": true,
          "mode": "grid",
          "direction": "地铁(D)·下",
          "dir_code": "down",
          "to_code": 9,
          "rt_ms": 313
        },
        {
          "step": 50,
          "from_code": 9,
          "key": "a",
          "valid": true,
          "mode": "grid",
          "direction": "地铁(A)·上",
          "dir_code": "up",
          "to_code": 6,
          "rt_ms": 195
        },
        {
          "step": 51,
          "from_code": 6,
          "key": "d",
          "valid": true,
          "mode": "grid",
          "direction": "地铁(D)·下",
          "dir_code": "down",
          "to_code": 9,
          "rt_ms": 14
        },
        {
          "step": 52,
          "from_code": 9,
          "key": "q",
          "valid": true,
          "mode": "grid",
          "direction": "公交(Q)·左",
          "dir_code": "left",
          "to_code": 8,
          "rt_ms": 2045
        },
        {
          "step": 53,
          "from_code": 8,
          "key": "e",
          "valid": true,
          "mode": "grid",
          "direction": "公交(E)·右",
          "dir_code": "right",
          "to_code": 9,
          "rt_ms": 1835
        },
        {
          "step": 54,
          "from_code": 9,
          "key": "q",
          "valid": true,
          "mode": "grid",
          "direction": "公交(Q)·左",
          "dir_code": "left",
          "to_code": 8,
          "rt_ms": 450
        },
        {
          "step": 55,
          "from_code": 8,
          "key": "e",
          "valid": true,
          "mode": "grid",
          "direction": "公交(E)·右",
          "dir_code": "right",
          "to_code": 9,
          "rt_ms": 495
        },
        {
          "step": 56,
          "from_code": 9,
          "key": "q",
          "valid": true,
          "mode": "grid",
          "direction": "公交(Q)·左",
          "dir_code": "left",
          "to_code": 8,
          "rt_ms": 325
        },
        {
          "step": 57,
          "from_code": 8,
          "key": "e",
          "valid": true,
          "mode": "grid",
          "direction": "公交(E)·右",
          "dir_code": "right",
          "to_code": 9,
          "rt_ms": 415
        },
        {
          "step": 58,
          "from_code": 9,
          "key": "q",
          "valid": true,
          "mode": "grid",
          "direction": "公交(Q)·左",
          "dir_code": "left",
          "to_code": 8,
          "rt_ms": 2547
        },
        {
          "step": 59,
          "from_code": 8,
          "key": "e",
          "valid": true,
          "mode": "grid",
          "direction": "公交(E)·右",
          "dir_code": "right",
          "to_code": 9,
          "rt_ms": 6961
        },
        {
          "step": 60,
          "from_code": 9,
          "key": "q",
          "valid": true,
          "mode": "grid",
          "direction": "公交(Q)·左",
          "dir_code": "left",
          "to_code": 8,
          "rt_ms": 170
        },
        {
          "step": 61,
          "from_code": 8,
          "key": "e",
          "valid": true,
          "mode": "grid",
          "direction": "公交(E)·右",
          "dir_code": "right",
          "to_code": 9,
          "rt_ms": 470
        },
        {
          "step": 62,
          "from_code": 9,
          "key": "w",
          "valid": true,
          "mode": "grid",
          "direction": "快速巴士(W)·角点顺时针",
          "dir_code": "cw",
          "to_code": 7,
          "rt_ms": 2331
        },
        {
          "step": 63,
          "from_code": 7,
          "key": "d",
          "valid": false,
          "to_code": null,
          "rt_ms": 5369,
          "mode": "grid",
          "direction": "地铁(D)·下",
          "dir_code": "down"
        },
        {
          "step": 63,
          "from_code": 7,
          "key": "d",
          "valid": false,
          "to_code": null,
          "rt_ms": 1641,
          "mode": "grid",
          "direction": "地铁(D)·下",
          "dir_code": "down"
        },
        {
          "step": 63,
          "from_code": 7,
          "key": "q",
          "valid": false,
          "to_code": null,
          "rt_ms": 1186,
          "mode": "grid",
          "direction": "公交(Q)·左",
          "dir_code": "left"
        },
        {
          "step": 63,
          "from_code": 7,
          "key": "w",
          "valid": true,
          "mode": "grid",
          "direction": "快速巴士(W)·角点顺时针",
          "dir_code": "cw",
          "to_code": 1,
          "rt_ms": 488
        },
        {
          "step": 64,
          "from_code": 1,
          "key": "a",
          "valid": false,
          "to_code": null,
          "rt_ms": 3743,
          "mode": "grid",
          "direction": "地铁(A)·上",
          "dir_code": "up"
        },
        {
          "step": 64,
          "from_code": 1,
          "key": "d",
          "valid": true,
          "mode": "grid",
          "direction": "地铁(D)·下",
          "dir_code": "down",
          "to_code": 4,
          "rt_ms": 555
        }
      ],
      "min_seconds": 180,
      "min_visits_per_node": 2,
      "trial_index": null,
      "trial_progress": null,
      "trial_id": "exploration",
      "start_code": 1,
      "goal_code": null,
      "goal_codes": [],
      "total_steps": 73,
      "outcome": "success",
      "total_time_ms": 385647
    },
    "screen_id": "mix_nav_practice_block",
    "trial_type": "call-function",
    "trial_index": 1,
    "time_elapsed": 407429,
    "internal_node_id": "0.0-1.0",
    "participant_id": "003",
    "experiment_order": "navigation-first"
  },
  {
    "rt": 10231,
    "stimulus": "<div class='nc-inst'><h2>正式实验</h2><div class='nc-inst-tag'>Session 1 · 导航</div><figure class='nc-inst-figure' aria-label='导航正式实验界面示意图'><img src='materials/intro_navigation2.png' alt='导航正式实验界面：目标站点、当前站点与交通工具及对应按键' loading='eager' decoding='async' /></figure><p>请依照<strong>您所学习的城市交通路线</strong>，通过使用不同的交通工具，<strong>从起始站点抵达提示的目标站点</strong>。</p><p>键位与练习一致。</p><p>完成当前试次后根据屏幕提示继续下一试次。</p><p>本阶段共 <strong>20</strong> 个试次。</p><p class='nc-inst-hint'>按 <strong>空格</strong> 开始正式实验。</p></div>",
    "response": " ",
    "screen_id": "mix_session_guidance",
    "mix_session": 1,
    "mix_domain": "navigation",
    "experiment_order": "navigation-first",
    "trial_type": "html-keyboard-response",
    "trial_index": 2,
    "time_elapsed": 417664,
    "internal_node_id": "0.0-2.0",
    "participant_id": "003"
  },
  {
    "value": {
      "phase": "main",
      "domain": "navigation",
      "trial_index": 1,
      "trial_progress": {
        "current": 1,
        "total": 20
      },
      "trial_id": "nav_1",
      "start_code": 6,
      "goal_code": 7,
      "goal_codes": [
        7
      ],
      "steps": [
        {
          "step": 1,
          "from_code": 6,
          "key": "w",
          "valid": false,
          "to_code": null,
          "rt_ms": 15727,
          "mode": "grid",
          "direction": "快速巴士(W)·角点顺时针",
          "dir_code": "cw"
        },
        {
          "step": 1,
          "from_code": 6,
          "key": "d",
          "valid": true,
          "mode": "grid",
          "direction": "地铁(D)·下",
          "dir_code": "down",
          "to_code": 9,
          "rt_ms": 4704
        },
        {
          "step": 2,
          "from_code": 9,
          "key": "d",
          "valid": false,
          "to_code": null,
          "rt_ms": 2970,
          "mode": "grid",
          "direction": "地铁(D)·下",
          "dir_code": "down"
        },
        {
          "step": 2,
          "from_code": 9,
          "key": "w",
          "valid": true,
          "mode": "grid",
          "direction": "快速巴士(W)·角点顺时针",
          "dir_code": "cw",
          "to_code": 7,
          "rt_ms": 1102
        }
      ],
      "total_steps": 2,
      "outcome": "success",
      "total_time_ms": 32201
    },
    "screen_id": "mix_navigation_trial",
    "phase": "main",
    "mix_session": 1,
    "mix_session_domain": "navigation",
    "mix_step_index": 1,
    "mix_step_total": 20,
    "experiment_order": "navigation-first",
    "pair_id": "L07",
    "category": "loop",
    "trial_id": "nav_1",
    "start_code": 6,
    "goal_code": 7,
    "goal_codes": [
      7
    ],
    "trial_type": "call-function",
    "trial_index": 3,
    "time_elapsed": 449865,
    "internal_node_id": "0.0-3.0",
    "participant_id": "003"
  },
  {
    "value": {
      "phase": "main",
      "domain": "navigation",
      "trial_index": 2,
      "trial_progress": {
        "current": 2,
        "total": 20
      },
      "trial_id": "nav_2",
      "start_code": 2,
      "goal_code": 6,
      "goal_codes": [
        6
      ],
      "steps": [
        {
          "step": 1,
          "from_code": 2,
          "key": "e",
          "valid": true,
          "mode": "grid",
          "direction": "公交(E)·右",
          "dir_code": "right",
          "to_code": 3,
          "rt_ms": 5607
        },
        {
          "step": 2,
          "from_code": 3,
          "key": "d",
          "valid": true,
          "mode": "grid",
          "direction": "地铁(D)·下",
          "dir_code": "down",
          "to_code": 6,
          "rt_ms": 13440
        }
      ],
      "total_steps": 2,
      "outcome": "success",
      "total_time_ms": 21454
    },
    "screen_id": "mix_navigation_trial",
    "phase": "main",
    "mix_session": 1,
    "mix_session_domain": "navigation",
    "mix_step_index": 2,
    "mix_step_total": 20,
    "experiment_order": "navigation-first",
    "pair_id": "G02",
    "category": "grid",
    "trial_id": "nav_2",
    "start_code": 2,
    "goal_code": 6,
    "goal_codes": [
      6
    ],
    "trial_type": "call-function",
    "trial_index": 4,
    "time_elapsed": 471319,
    "internal_node_id": "0.0-4.0",
    "participant_id": "003"
  },
  {
    "value": {
      "phase": "main",
      "domain": "navigation",
      "trial_index": 3,
      "trial_progress": {
        "current": 3,
        "total": 20
      },
      "trial_id": "nav_3",
      "start_code": 2,
      "goal_code": 9,
      "goal_codes": [
        9
      ],
      "steps": [
        {
          "step": 1,
          "from_code": 2,
          "key": "d",
          "valid": true,
          "mode": "grid",
          "direction": "地铁(D)·下",
          "dir_code": "down",
          "to_code": 5,
          "rt_ms": 12509
        },
        {
          "step": 2,
          "from_code": 5,
          "key": "a",
          "valid": true,
          "mode": "grid",
          "direction": "地铁(A)·上",
          "dir_code": "up",
          "to_code": 2,
          "rt_ms": 6552
        },
        {
          "step": 3,
          "from_code": 2,
          "key": "e",
          "valid": true,
          "mode": "grid",
          "direction": "公交(E)·右",
          "dir_code": "right",
          "to_code": 3,
          "rt_ms": 21974
        },
        {
          "step": 4,
          "from_code": 3,
          "key": "d",
          "valid": true,
          "mode": "grid",
          "direction": "地铁(D)·下",
          "dir_code": "down",
          "to_code": 6,
          "rt_ms": 4841
        },
        {
          "step": 5,
          "from_code": 6,
          "key": "d",
          "valid": true,
          "mode": "grid",
          "direction": "地铁(D)·下",
          "dir_code": "down",
          "to_code": 9,
          "rt_ms": 6111
        }
      ],
      "total_steps": 5,
      "outcome": "success",
      "total_time_ms": 55220
    },
    "screen_id": "mix_navigation_trial",
    "phase": "main",
    "mix_session": 1,
    "mix_session_domain": "navigation",
    "mix_step_index": 3,
    "mix_step_total": 20,
    "experiment_order": "navigation-first",
    "pair_id": "L03",
    "category": "loop",
    "trial_id": "nav_3",
    "start_code": 2,
    "goal_code": 9,
    "goal_codes": [
      9
    ],
    "trial_type": "call-function",
    "trial_index": 5,
    "time_elapsed": 526539,
    "internal_node_id": "0.0-5.0",
    "participant_id": "003"
  },
  {
    "value": {
      "phase": "main",
      "domain": "navigation",
      "trial_index": 4,
      "trial_progress": {
        "current": 4,
        "total": 20
      },
      "trial_id": "nav_4",
      "start_code": 1,
      "goal_code": 6,
      "goal_codes": [
        6
      ],
      "steps": [
        {
          "step": 1,
          "from_code": 1,
          "key": "w",
          "valid": true,
          "mode": "grid",
          "direction": "快速巴士(W)·角点顺时针",
          "dir_code": "cw",
          "to_code": 3,
          "rt_ms": 15513
        },
        {
          "step": 2,
          "from_code": 3,
          "key": "w",
          "valid": true,
          "mode": "grid",
          "direction": "快速巴士(W)·角点顺时针",
          "dir_code": "cw",
          "to_code": 9,
          "rt_ms": 1482
        },
        {
          "step": 3,
          "from_code": 9,
          "key": "w",
          "valid": true,
          "mode": "grid",
          "direction": "快速巴士(W)·角点顺时针",
          "dir_code": "cw",
          "to_code": 7,
          "rt_ms": 1309
        },
        {
          "step": 4,
          "from_code": 7,
          "key": "w",
          "valid": true,
          "mode": "grid",
          "direction": "快速巴士(W)·角点顺时针",
          "dir_code": "cw",
          "to_code": 1,
          "rt_ms": 1193
        },
        {
          "step": 5,
          "from_code": 1,
          "key": "a",
          "valid": false,
          "to_code": null,
          "rt_ms": 4280,
          "mode": "grid",
          "direction": "地铁(A)·上",
          "dir_code": "up"
        },
        {
          "step": 5,
          "from_code": 1,
          "key": "d",
          "valid": true,
          "mode": "grid",
          "direction": "地铁(D)·下",
          "dir_code": "down",
          "to_code": 4,
          "rt_ms": 544
        },
        {
          "step": 6,
          "from_code": 4,
          "key": "d",
          "valid": true,
          "mode": "grid",
          "direction": "地铁(D)·下",
          "dir_code": "down",
          "to_code": 7,
          "rt_ms": 1243
        },
        {
          "step": 7,
          "from_code": 7,
          "key": "e",
          "valid": true,
          "mode": "grid",
          "direction": "公交(E)·右",
          "dir_code": "right",
          "to_code": 8,
          "rt_ms": 3421
        },
        {
          "step": 8,
          "from_code": 8,
          "key": "a",
          "valid": true,
          "mode": "grid",
          "direction": "地铁(A)·上",
          "dir_code": "up",
          "to_code": 5,
          "rt_ms": 27292
        },
        {
          "step": 9,
          "from_code": 5,
          "key": "e",
          "valid": true,
          "mode": "grid",
          "direction": "公交(E)·右",
          "dir_code": "right",
          "to_code": 6,
          "rt_ms": 6082
        }
      ],
      "total_steps": 9,
      "outcome": "success",
      "total_time_ms": 66816
    },
    "screen_id": "mix_navigation_trial",
    "phase": "main",
    "mix_session": 1,
    "mix_session_domain": "navigation",
    "mix_step_index": 4,
    "mix_step_total": 20,
    "experiment_order": "navigation-first",
    "pair_id": "L01",
    "category": "loop",
    "trial_id": "nav_4",
    "start_code": 1,
    "goal_code": 6,
    "goal_codes": [
      6
    ],
    "trial_type": "call-function",
    "trial_index": 6,
    "time_elapsed": 593355,
    "internal_node_id": "0.0-6.0",
    "participant_id": "003"
  },
  {
    "value": {
      "phase": "main",
      "domain": "navigation",
      "trial_index": 5,
      "trial_progress": {
        "current": 5,
        "total": 20
      },
      "trial_id": "nav_5",
      "start_code": 4,
      "goal_code": 3,
      "goal_codes": [
        3
      ],
      "steps": [
        {
          "step": 1,
          "from_code": 4,
          "key": "q",
          "valid": false,
          "to_code": null,
          "rt_ms": 21593,
          "mode": "grid",
          "direction": "公交(Q)·左",
          "dir_code": "left"
        },
        {
          "step": 1,
          "from_code": 4,
          "key": "e",
          "valid": true,
          "mode": "grid",
          "direction": "公交(E)·右",
          "dir_code": "right",
          "to_code": 5,
          "rt_ms": 1243
        },
        {
          "step": 2,
          "from_code": 5,
          "key": "e",
          "valid": true,
          "mode": "grid",
          "direction": "公交(E)·右",
          "dir_code": "right",
          "to_code": 6,
          "rt_ms": 10995
        },
        {
          "step": 3,
          "from_code": 6,
          "key": "a",
          "valid": true,
          "mode": "grid",
          "direction": "地铁(A)·上",
          "dir_code": "up",
          "to_code": 3,
          "rt_ms": 5217
        }
      ],
      "total_steps": 3,
      "outcome": "success",
      "total_time_ms": 41165
    },
    "screen_id": "mix_navigation_trial",
    "phase": "main",
    "mix_session": 1,
    "mix_session_domain": "navigation",
    "mix_step_index": 5,
    "mix_step_total": 20,
    "experiment_order": "navigation-first",
    "pair_id": "L06",
    "category": "loop",
    "trial_id": "nav_5",
    "start_code": 4,
    "goal_code": 3,
    "goal_codes": [
      3
    ],
    "trial_type": "call-function",
    "trial_index": 7,
    "time_elapsed": 634521,
    "internal_node_id": "0.0-7.0",
    "participant_id": "003"
  },
  {
    "value": {
      "phase": "main",
      "domain": "navigation",
      "trial_index": 6,
      "trial_progress": {
        "current": 6,
        "total": 20
      },
      "trial_id": "nav_6",
      "start_code": 9,
      "goal_code": 3,
      "goal_codes": [
        3
      ],
      "steps": [
        {
          "step": 1,
          "from_code": 9,
          "key": "e",
          "valid": false,
          "to_code": null,
          "rt_ms": 8417,
          "mode": "grid",
          "direction": "公交(E)·右",
          "dir_code": "right"
        },
        {
          "step": 1,
          "from_code": 9,
          "key": "q",
          "valid": true,
          "mode": "grid",
          "direction": "公交(Q)·左",
          "dir_code": "left",
          "to_code": 8,
          "rt_ms": 613
        },
        {
          "step": 2,
          "from_code": 8,
          "key": "e",
          "valid": true,
          "mode": "grid",
          "direction": "公交(E)·右",
          "dir_code": "right",
          "to_code": 9,
          "rt_ms": 13345
        },
        {
          "step": 3,
          "from_code": 9,
          "key": "q",
          "valid": true,
          "mode": "grid",
          "direction": "公交(Q)·左",
          "dir_code": "left",
          "to_code": 8,
          "rt_ms": 1188
        },
        {
          "step": 4,
          "from_code": 8,
          "key": "a",
          "valid": true,
          "mode": "grid",
          "direction": "地铁(A)·上",
          "dir_code": "up",
          "to_code": 5,
          "rt_ms": 4157
        },
        {
          "step": 5,
          "from_code": 5,
          "key": "e",
          "valid": true,
          "mode": "grid",
          "direction": "公交(E)·右",
          "dir_code": "right",
          "to_code": 6,
          "rt_ms": 8940
        },
        {
          "step": 6,
          "from_code": 6,
          "key": "a",
          "valid": true,
          "mode": "grid",
          "direction": "地铁(A)·上",
          "dir_code": "up",
          "to_code": 3,
          "rt_ms": 7178
        }
      ],
      "total_steps": 6,
      "outcome": "success",
      "total_time_ms": 46612
    },
    "screen_id": "mix_navigation_trial",
    "phase": "main",
    "mix_session": 1,
    "mix_session_domain": "navigation",
    "mix_step_index": 6,
    "mix_step_total": 20,
    "experiment_order": "navigation-first",
    "pair_id": "G11",
    "category": "grid",
    "trial_id": "nav_6",
    "start_code": 9,
    "goal_code": 3,
    "goal_codes": [
      3
    ],
    "trial_type": "call-function",
    "trial_index": 8,
    "time_elapsed": 681060,
    "internal_node_id": "0.0-8.0",
    "participant_id": "003"
  },
  {
    "value": {
      "phase": "main",
      "domain": "navigation",
      "trial_index": 7,
      "trial_progress": {
        "current": 7,
        "total": 20
      },
      "trial_id": "nav_7",
      "start_code": 2,
      "goal_code": 6,
      "goal_codes": [
        6
      ],
      "steps": [
        {
          "step": 1,
          "from_code": 2,
          "key": "w",
          "valid": false,
          "to_code": null,
          "rt_ms": 6479,
          "mode": "grid",
          "direction": "快速巴士(W)·角点顺时针",
          "dir_code": "cw"
        },
        {
          "step": 1,
          "from_code": 2,
          "key": "d",
          "valid": true,
          "mode": "grid",
          "direction": "地铁(D)·下",
          "dir_code": "down",
          "to_code": 5,
          "rt_ms": 1370
        },
        {
          "step": 2,
          "from_code": 5,
          "key": "a",
          "valid": true,
          "mode": "grid",
          "direction": "地铁(A)·上",
          "dir_code": "up",
          "to_code": 2,
          "rt_ms": 4891
        },
        {
          "step": 3,
          "from_code": 2,
          "key": "d",
          "valid": true,
          "mode": "grid",
          "direction": "地铁(D)·下",
          "dir_code": "down",
          "to_code": 5,
          "rt_ms": 1038
        },
        {
          "step": 4,
          "from_code": 5,
          "key": "d",
          "valid": true,
          "mode": "grid",
          "direction": "地铁(D)·下",
          "dir_code": "down",
          "to_code": 8,
          "rt_ms": 1264
        },
        {
          "step": 5,
          "from_code": 8,
          "key": "a",
          "valid": true,
          "mode": "grid",
          "direction": "地铁(A)·上",
          "dir_code": "up",
          "to_code": 5,
          "rt_ms": 9512
        },
        {
          "step": 6,
          "from_code": 5,
          "key": "e",
          "valid": true,
          "mode": "grid",
          "direction": "公交(E)·右",
          "dir_code": "right",
          "to_code": 6,
          "rt_ms": 7610
        }
      ],
      "total_steps": 6,
      "outcome": "success",
      "total_time_ms": 34983
    },
    "screen_id": "mix_navigation_trial",
    "phase": "main",
    "mix_session": 1,
    "mix_session_domain": "navigation",
    "mix_step_index": 7,
    "mix_step_total": 20,
    "experiment_order": "navigation-first",
    "pair_id": "G02",
    "category": "grid",
    "trial_id": "nav_7",
    "start_code": 2,
    "goal_code": 6,
    "goal_codes": [
      6
    ],
    "trial_type": "call-function",
    "trial_index": 9,
    "time_elapsed": 716043,
    "internal_node_id": "0.0-9.0",
    "participant_id": "003"
  },
  {
    "value": {
      "phase": "main",
      "domain": "navigation",
      "trial_index": 8,
      "trial_progress": {
        "current": 8,
        "total": 20
      },
      "trial_id": "nav_8",
      "start_code": 1,
      "goal_code": 9,
      "goal_codes": [
        9
      ],
      "steps": [
        {
          "step": 1,
          "from_code": 1,
          "key": "e",
          "valid": true,
          "mode": "grid",
          "direction": "公交(E)·右",
          "dir_code": "right",
          "to_code": 2,
          "rt_ms": 11714
        },
        {
          "step": 2,
          "from_code": 2,
          "key": "e",
          "valid": true,
          "mode": "grid",
          "direction": "公交(E)·右",
          "dir_code": "right",
          "to_code": 3,
          "rt_ms": 8747
        },
        {
          "step": 3,
          "from_code": 3,
          "key": "a",
          "valid": false,
          "to_code": null,
          "rt_ms": 8904,
          "mode": "grid",
          "direction": "地铁(A)·上",
          "dir_code": "up"
        },
        {
          "step": 3,
          "from_code": 3,
          "key": "d",
          "valid": true,
          "mode": "grid",
          "direction": "地铁(D)·下",
          "dir_code": "down",
          "to_code": 6,
          "rt_ms": 1120
        },
        {
          "step": 4,
          "from_code": 6,
          "key": "d",
          "valid": true,
          "mode": "grid",
          "direction": "地铁(D)·下",
          "dir_code": "down",
          "to_code": 9,
          "rt_ms": 8449
        }
      ],
      "total_steps": 4,
      "outcome": "success",
      "total_time_ms": 42413
    },
    "screen_id": "mix_navigation_trial",
    "phase": "main",
    "mix_session": 1,
    "mix_session_domain": "navigation",
    "mix_step_index": 8,
    "mix_step_total": 20,
    "experiment_order": "navigation-first",
    "pair_id": "L02",
    "category": "loop",
    "trial_id": "nav_8",
    "start_code": 1,
    "goal_code": 9,
    "goal_codes": [
      9
    ],
    "trial_type": "call-function",
    "trial_index": 10,
    "time_elapsed": 758456,
    "internal_node_id": "0.0-10.0",
    "participant_id": "003"
  },
  {
    "value": {
      "phase": "main",
      "domain": "navigation",
      "trial_index": 9,
      "trial_progress": {
        "current": 9,
        "total": 20
      },
      "trial_id": "nav_9",
      "start_code": 2,
      "goal_code": 7,
      "goal_codes": [
        7
      ],
      "steps": [
        {
          "step": 1,
          "from_code": 2,
          "key": "w",
          "valid": false,
          "to_code": null,
          "rt_ms": 1968,
          "mode": "grid",
          "direction": "快速巴士(W)·角点顺时针",
          "dir_code": "cw"
        },
        {
          "step": 1,
          "from_code": 2,
          "key": "w",
          "valid": false,
          "to_code": null,
          "rt_ms": 485,
          "mode": "grid",
          "direction": "快速巴士(W)·角点顺时针",
          "dir_code": "cw"
        },
        {
          "step": 1,
          "from_code": 2,
          "key": "q",
          "valid": true,
          "mode": "grid",
          "direction": "公交(Q)·左",
          "dir_code": "left",
          "to_code": 1,
          "rt_ms": 5350
        },
        {
          "step": 2,
          "from_code": 1,
          "key": "e",
          "valid": true,
          "mode": "grid",
          "direction": "公交(E)·右",
          "dir_code": "right",
          "to_code": 2,
          "rt_ms": 1252
        },
        {
          "step": 3,
          "from_code": 2,
          "key": "e",
          "valid": true,
          "mode": "grid",
          "direction": "公交(E)·右",
          "dir_code": "right",
          "to_code": 3,
          "rt_ms": 1054
        },
        {
          "step": 4,
          "from_code": 3,
          "key": "w",
          "valid": true,
          "mode": "grid",
          "direction": "快速巴士(W)·角点顺时针",
          "dir_code": "cw",
          "to_code": 9,
          "rt_ms": 4158
        },
        {
          "step": 5,
          "from_code": 9,
          "key": "w",
          "valid": true,
          "mode": "grid",
          "direction": "快速巴士(W)·角点顺时针",
          "dir_code": "cw",
          "to_code": 7,
          "rt_ms": 2979
        }
      ],
      "total_steps": 5,
      "outcome": "success",
      "total_time_ms": 20042
    },
    "screen_id": "mix_navigation_trial",
    "phase": "main",
    "mix_session": 1,
    "mix_session_domain": "navigation",
    "mix_step_index": 9,
    "mix_step_total": 20,
    "experiment_order": "navigation-first",
    "pair_id": "T02",
    "category": "tie",
    "trial_id": "nav_9",
    "start_code": 2,
    "goal_code": 7,
    "goal_codes": [
      7
    ],
    "trial_type": "call-function",
    "trial_index": 11,
    "time_elapsed": 778498,
    "internal_node_id": "0.0-11.0",
    "participant_id": "003"
  },
  {
    "value": {
      "phase": "main",
      "domain": "navigation",
      "trial_index": 10,
      "trial_progress": {
        "current": 10,
        "total": 20
      },
      "trial_id": "nav_10",
      "start_code": 1,
      "goal_code": 9,
      "goal_codes": [
        9
      ],
      "steps": [
        {
          "step": 1,
          "from_code": 1,
          "key": "d",
          "valid": true,
          "mode": "grid",
          "direction": "地铁(D)·下",
          "dir_code": "down",
          "to_code": 4,
          "rt_ms": 18944
        },
        {
          "step": 2,
          "from_code": 4,
          "key": "d",
          "valid": true,
          "mode": "grid",
          "direction": "地铁(D)·下",
          "dir_code": "down",
          "to_code": 7,
          "rt_ms": 2000
        },
        {
          "step": 3,
          "from_code": 7,
          "key": "d",
          "valid": false,
          "to_code": null,
          "rt_ms": 1447,
          "mode": "grid",
          "direction": "地铁(D)·下",
          "dir_code": "down"
        },
        {
          "step": 3,
          "from_code": 7,
          "key": "a",
          "valid": true,
          "mode": "grid",
          "direction": "地铁(A)·上",
          "dir_code": "up",
          "to_code": 4,
          "rt_ms": 579
        },
        {
          "step": 4,
          "from_code": 4,
          "key": "a",
          "valid": true,
          "mode": "grid",
          "direction": "地铁(A)·上",
          "dir_code": "up",
          "to_code": 1,
          "rt_ms": 1476
        },
        {
          "step": 5,
          "from_code": 1,
          "key": "d",
          "valid": true,
          "mode": "grid",
          "direction": "地铁(D)·下",
          "dir_code": "down",
          "to_code": 4,
          "rt_ms": 4117
        },
        {
          "step": 6,
          "from_code": 4,
          "key": "e",
          "valid": true,
          "mode": "grid",
          "direction": "公交(E)·右",
          "dir_code": "right",
          "to_code": 5,
          "rt_ms": 1672
        },
        {
          "step": 7,
          "from_code": 5,
          "key": "e",
          "valid": true,
          "mode": "grid",
          "direction": "公交(E)·右",
          "dir_code": "right",
          "to_code": 6,
          "rt_ms": 3562
        },
        {
          "step": 8,
          "from_code": 6,
          "key": "a",
          "valid": true,
          "mode": "grid",
          "direction": "地铁(A)·上",
          "dir_code": "up",
          "to_code": 3,
          "rt_ms": 4018
        },
        {
          "step": 9,
          "from_code": 3,
          "key": "w",
          "valid": true,
          "mode": "grid",
          "direction": "快速巴士(W)·角点顺时针",
          "dir_code": "cw",
          "to_code": 9,
          "rt_ms": 10593
        }
      ],
      "total_steps": 9,
      "outcome": "success",
      "total_time_ms": 52479
    },
    "screen_id": "mix_navigation_trial",
    "phase": "main",
    "mix_session": 1,
    "mix_session_domain": "navigation",
    "mix_step_index": 10,
    "mix_step_total": 20,
    "experiment_order": "navigation-first",
    "pair_id": "L02",
    "category": "loop",
    "trial_id": "nav_10",
    "start_code": 1,
    "goal_code": 9,
    "goal_codes": [
      9
    ],
    "trial_type": "call-function",
    "trial_index": 12,
    "time_elapsed": 830976,
    "internal_node_id": "0.0-12.0",
    "participant_id": "003"
  },
  {
    "value": {
      "phase": "main",
      "domain": "navigation",
      "trial_index": 11,
      "trial_progress": {
        "current": 11,
        "total": 20
      },
      "trial_id": "nav_11",
      "start_code": 2,
      "goal_code": 9,
      "goal_codes": [
        9
      ],
      "steps": [
        {
          "step": 1,
          "from_code": 2,
          "key": "w",
          "valid": false,
          "to_code": null,
          "rt_ms": 14640,
          "mode": "grid",
          "direction": "快速巴士(W)·角点顺时针",
          "dir_code": "cw"
        },
        {
          "step": 1,
          "from_code": 2,
          "key": "d",
          "valid": true,
          "mode": "grid",
          "direction": "地铁(D)·下",
          "dir_code": "down",
          "to_code": 5,
          "rt_ms": 1328
        },
        {
          "step": 2,
          "from_code": 5,
          "key": "e",
          "valid": true,
          "mode": "grid",
          "direction": "公交(E)·右",
          "dir_code": "right",
          "to_code": 6,
          "rt_ms": 3147
        },
        {
          "step": 3,
          "from_code": 6,
          "key": "e",
          "valid": false,
          "to_code": null,
          "rt_ms": 1573,
          "mode": "grid",
          "direction": "公交(E)·右",
          "dir_code": "right"
        },
        {
          "step": 3,
          "from_code": 6,
          "key": "a",
          "valid": true,
          "mode": "grid",
          "direction": "地铁(A)·上",
          "dir_code": "up",
          "to_code": 3,
          "rt_ms": 3975
        },
        {
          "step": 4,
          "from_code": 3,
          "key": "a",
          "valid": false,
          "to_code": null,
          "rt_ms": 9090,
          "mode": "grid",
          "direction": "地铁(A)·上",
          "dir_code": "up"
        },
        {
          "step": 4,
          "from_code": 3,
          "key": "d",
          "valid": true,
          "mode": "grid",
          "direction": "地铁(D)·下",
          "dir_code": "down",
          "to_code": 6,
          "rt_ms": 413
        },
        {
          "step": 5,
          "from_code": 6,
          "key": "d",
          "valid": true,
          "mode": "grid",
          "direction": "地铁(D)·下",
          "dir_code": "down",
          "to_code": 9,
          "rt_ms": 704
        }
      ],
      "total_steps": 5,
      "outcome": "success",
      "total_time_ms": 37336
    },
    "screen_id": "mix_navigation_trial",
    "phase": "main",
    "mix_session": 1,
    "mix_session_domain": "navigation",
    "mix_step_index": 11,
    "mix_step_total": 20,
    "experiment_order": "navigation-first",
    "pair_id": "L03",
    "category": "loop",
    "trial_id": "nav_11",
    "start_code": 2,
    "goal_code": 9,
    "goal_codes": [
      9
    ],
    "trial_type": "call-function",
    "trial_index": 13,
    "time_elapsed": 868312,
    "internal_node_id": "0.0-13.0",
    "participant_id": "003"
  },
  {
    "value": {
      "phase": "main",
      "domain": "navigation",
      "trial_index": 12,
      "trial_progress": {
        "current": 12,
        "total": 20
      },
      "trial_id": "nav_12",
      "start_code": 5,
      "goal_code": 7,
      "goal_codes": [
        7
      ],
      "steps": [
        {
          "step": 1,
          "from_code": 5,
          "key": "d",
          "valid": true,
          "mode": "grid",
          "direction": "地铁(D)·下",
          "dir_code": "down",
          "to_code": 8,
          "rt_ms": 3433
        },
        {
          "step": 2,
          "from_code": 8,
          "key": "d",
          "valid": false,
          "to_code": null,
          "rt_ms": 11642,
          "mode": "grid",
          "direction": "地铁(D)·下",
          "dir_code": "down"
        },
        {
          "step": 2,
          "from_code": 8,
          "key": "a",
          "valid": true,
          "mode": "grid",
          "direction": "地铁(A)·上",
          "dir_code": "up",
          "to_code": 5,
          "rt_ms": 484
        },
        {
          "step": 3,
          "from_code": 5,
          "key": "a",
          "valid": true,
          "mode": "grid",
          "direction": "地铁(A)·上",
          "dir_code": "up",
          "to_code": 2,
          "rt_ms": 8191
        },
        {
          "step": 4,
          "from_code": 2,
          "key": "a",
          "valid": false,
          "to_code": null,
          "rt_ms": 7913,
          "mode": "grid",
          "direction": "地铁(A)·上",
          "dir_code": "up"
        },
        {
          "step": 4,
          "from_code": 2,
          "key": "d",
          "valid": true,
          "mode": "grid",
          "direction": "地铁(D)·下",
          "dir_code": "down",
          "to_code": 5,
          "rt_ms": 484
        },
        {
          "step": 5,
          "from_code": 5,
          "key": "w",
          "valid": false,
          "to_code": null,
          "rt_ms": 8513,
          "mode": "grid",
          "direction": "快速巴士(W)·角点顺时针",
          "dir_code": "cw"
        },
        {
          "step": 5,
          "from_code": 5,
          "key": "d",
          "valid": true,
          "mode": "grid",
          "direction": "地铁(D)·下",
          "dir_code": "down",
          "to_code": 8,
          "rt_ms": 409
        },
        {
          "step": 6,
          "from_code": 8,
          "key": "d",
          "valid": false,
          "to_code": null,
          "rt_ms": 494,
          "mode": "grid",
          "direction": "地铁(D)·下",
          "dir_code": "down"
        },
        {
          "step": 6,
          "from_code": 8,
          "key": "d",
          "valid": false,
          "to_code": null,
          "rt_ms": 439,
          "mode": "grid",
          "direction": "地铁(D)·下",
          "dir_code": "down"
        },
        {
          "step": 6,
          "from_code": 8,
          "key": "a",
          "valid": true,
          "mode": "grid",
          "direction": "地铁(A)·上",
          "dir_code": "up",
          "to_code": 5,
          "rt_ms": 243
        },
        {
          "step": 7,
          "from_code": 5,
          "key": "w",
          "valid": false,
          "to_code": null,
          "rt_ms": 420,
          "mode": "grid",
          "direction": "快速巴士(W)·角点顺时针",
          "dir_code": "cw"
        },
        {
          "step": 7,
          "from_code": 5,
          "key": "d",
          "valid": true,
          "mode": "grid",
          "direction": "地铁(D)·下",
          "dir_code": "down",
          "to_code": 8,
          "rt_ms": 471
        },
        {
          "step": 8,
          "from_code": 8,
          "key": "w",
          "valid": false,
          "to_code": null,
          "rt_ms": 1533,
          "mode": "grid",
          "direction": "快速巴士(W)·角点顺时针",
          "dir_code": "cw"
        },
        {
          "step": 8,
          "from_code": 8,
          "key": "e",
          "valid": true,
          "mode": "grid",
          "direction": "公交(E)·右",
          "dir_code": "right",
          "to_code": 9,
          "rt_ms": 39
        },
        {
          "step": 9,
          "from_code": 9,
          "key": "w",
          "valid": true,
          "mode": "grid",
          "direction": "快速巴士(W)·角点顺时针",
          "dir_code": "cw",
          "to_code": 7,
          "rt_ms": 5978
        }
      ],
      "total_steps": 9,
      "outcome": "success",
      "total_time_ms": 57289
    },
    "screen_id": "mix_navigation_trial",
    "phase": "main",
    "mix_session": 1,
    "mix_session_domain": "navigation",
    "mix_step_index": 12,
    "mix_step_total": 20,
    "experiment_order": "navigation-first",
    "pair_id": "G07",
    "category": "grid",
    "trial_id": "nav_12",
    "start_code": 5,
    "goal_code": 7,
    "goal_codes": [
      7
    ],
    "trial_type": "call-function",
    "trial_index": 14,
    "time_elapsed": 925600,
    "internal_node_id": "0.0-14.0",
    "participant_id": "003"
  },
  {
    "value": {
      "phase": "main",
      "domain": "navigation",
      "trial_index": 13,
      "trial_progress": {
        "current": 13,
        "total": 20
      },
      "trial_id": "nav_13",
      "start_code": 9,
      "goal_code": 5,
      "goal_codes": [
        5
      ],
      "steps": [
        {
          "step": 1,
          "from_code": 9,
          "key": "e",
          "valid": false,
          "to_code": null,
          "rt_ms": 9088,
          "mode": "grid",
          "direction": "公交(E)·右",
          "dir_code": "right"
        },
        {
          "step": 1,
          "from_code": 9,
          "key": "q",
          "valid": true,
          "mode": "grid",
          "direction": "公交(Q)·左",
          "dir_code": "left",
          "to_code": 8,
          "rt_ms": 314
        },
        {
          "step": 2,
          "from_code": 8,
          "key": "w",
          "valid": false,
          "to_code": null,
          "rt_ms": 10126,
          "mode": "grid",
          "direction": "快速巴士(W)·角点顺时针",
          "dir_code": "cw"
        },
        {
          "step": 2,
          "from_code": 8,
          "key": "e",
          "valid": true,
          "mode": "grid",
          "direction": "公交(E)·右",
          "dir_code": "right",
          "to_code": 9,
          "rt_ms": 602
        },
        {
          "step": 3,
          "from_code": 9,
          "key": "d",
          "valid": false,
          "to_code": null,
          "rt_ms": 10451,
          "mode": "grid",
          "direction": "地铁(D)·下",
          "dir_code": "down"
        },
        {
          "step": 3,
          "from_code": 9,
          "key": "a",
          "valid": true,
          "mode": "grid",
          "direction": "地铁(A)·上",
          "dir_code": "up",
          "to_code": 6,
          "rt_ms": 351
        },
        {
          "step": 4,
          "from_code": 6,
          "key": "e",
          "valid": false,
          "to_code": null,
          "rt_ms": 4280,
          "mode": "grid",
          "direction": "公交(E)·右",
          "dir_code": "right"
        },
        {
          "step": 4,
          "from_code": 6,
          "key": "q",
          "valid": true,
          "mode": "grid",
          "direction": "公交(Q)·左",
          "dir_code": "left",
          "to_code": 5,
          "rt_ms": 1492
        }
      ],
      "total_steps": 4,
      "outcome": "success",
      "total_time_ms": 40377
    },
    "screen_id": "mix_navigation_trial",
    "phase": "main",
    "mix_session": 1,
    "mix_session_domain": "navigation",
    "mix_step_index": 13,
    "mix_step_total": 20,
    "experiment_order": "navigation-first",
    "pair_id": "G12",
    "category": "grid",
    "trial_id": "nav_13",
    "start_code": 9,
    "goal_code": 5,
    "goal_codes": [
      5
    ],
    "trial_type": "call-function",
    "trial_index": 15,
    "time_elapsed": 965977,
    "internal_node_id": "0.0-15.0",
    "participant_id": "003"
  },
  {
    "value": {
      "phase": "main",
      "domain": "navigation",
      "trial_index": 14,
      "trial_progress": {
        "current": 14,
        "total": 20
      },
      "trial_id": "nav_14",
      "start_code": 7,
      "goal_code": 3,
      "goal_codes": [
        3
      ],
      "steps": [
        {
          "step": 1,
          "from_code": 7,
          "key": "w",
          "valid": true,
          "mode": "grid",
          "direction": "快速巴士(W)·角点顺时针",
          "dir_code": "cw",
          "to_code": 1,
          "rt_ms": 8820
        },
        {
          "step": 2,
          "from_code": 1,
          "key": "w",
          "valid": true,
          "mode": "grid",
          "direction": "快速巴士(W)·角点顺时针",
          "dir_code": "cw",
          "to_code": 3,
          "rt_ms": 5990
        }
      ],
      "total_steps": 2,
      "outcome": "success",
      "total_time_ms": 17762
    },
    "screen_id": "mix_navigation_trial",
    "phase": "main",
    "mix_session": 1,
    "mix_session_domain": "navigation",
    "mix_step_index": 14,
    "mix_step_total": 20,
    "experiment_order": "navigation-first",
    "pair_id": "L09",
    "category": "loop",
    "trial_id": "nav_14",
    "start_code": 7,
    "goal_code": 3,
    "goal_codes": [
      3
    ],
    "trial_type": "call-function",
    "trial_index": 16,
    "time_elapsed": 983739,
    "internal_node_id": "0.0-16.0",
    "participant_id": "003"
  },
  {
    "value": {
      "phase": "main",
      "domain": "navigation",
      "trial_index": 15,
      "trial_progress": {
        "current": 15,
        "total": 20
      },
      "trial_id": "nav_15",
      "start_code": 2,
      "goal_code": 6,
      "goal_codes": [
        6
      ],
      "steps": [
        {
          "step": 1,
          "from_code": 2,
          "key": "q",
          "valid": true,
          "mode": "grid",
          "direction": "公交(Q)·左",
          "dir_code": "left",
          "to_code": 1,
          "rt_ms": 5031
        },
        {
          "step": 2,
          "from_code": 1,
          "key": "e",
          "valid": true,
          "mode": "grid",
          "direction": "公交(E)·右",
          "dir_code": "right",
          "to_code": 2,
          "rt_ms": 761
        },
        {
          "step": 3,
          "from_code": 2,
          "key": "d",
          "valid": true,
          "mode": "grid",
          "direction": "地铁(D)·下",
          "dir_code": "down",
          "to_code": 5,
          "rt_ms": 11934
        },
        {
          "step": 4,
          "from_code": 5,
          "key": "e",
          "valid": true,
          "mode": "grid",
          "direction": "公交(E)·右",
          "dir_code": "right",
          "to_code": 6,
          "rt_ms": 4488
        }
      ],
      "total_steps": 4,
      "outcome": "success",
      "total_time_ms": 24595
    },
    "screen_id": "mix_navigation_trial",
    "phase": "main",
    "mix_session": 1,
    "mix_session_domain": "navigation",
    "mix_step_index": 15,
    "mix_step_total": 20,
    "experiment_order": "navigation-first",
    "pair_id": "G02",
    "category": "grid",
    "trial_id": "nav_15",
    "start_code": 2,
    "goal_code": 6,
    "goal_codes": [
      6
    ],
    "trial_type": "call-function",
    "trial_index": 17,
    "time_elapsed": 1008334,
    "internal_node_id": "0.0-17.0",
    "participant_id": "003"
  },
  {
    "value": {
      "phase": "main",
      "domain": "navigation",
      "trial_index": 16,
      "trial_progress": {
        "current": 16,
        "total": 20
      },
      "trial_id": "nav_16",
      "start_code": 6,
      "goal_code": 8,
      "goal_codes": [
        8
      ],
      "steps": [
        {
          "step": 1,
          "from_code": 6,
          "key": "a",
          "valid": true,
          "mode": "grid",
          "direction": "地铁(A)·上",
          "dir_code": "up",
          "to_code": 3,
          "rt_ms": 10850
        },
        {
          "step": 2,
          "from_code": 3,
          "key": "a",
          "valid": false,
          "to_code": null,
          "rt_ms": 4266,
          "mode": "grid",
          "direction": "地铁(A)·上",
          "dir_code": "up"
        },
        {
          "step": 2,
          "from_code": 3,
          "key": "d",
          "valid": true,
          "mode": "grid",
          "direction": "地铁(D)·下",
          "dir_code": "down",
          "to_code": 6,
          "rt_ms": 579
        },
        {
          "step": 3,
          "from_code": 6,
          "key": "d",
          "valid": true,
          "mode": "grid",
          "direction": "地铁(D)·下",
          "dir_code": "down",
          "to_code": 9,
          "rt_ms": 5625
        },
        {
          "step": 4,
          "from_code": 9,
          "key": "w",
          "valid": true,
          "mode": "grid",
          "direction": "快速巴士(W)·角点顺时针",
          "dir_code": "cw",
          "to_code": 7,
          "rt_ms": 3903
        },
        {
          "step": 5,
          "from_code": 7,
          "key": "w",
          "valid": true,
          "mode": "grid",
          "direction": "快速巴士(W)·角点顺时针",
          "dir_code": "cw",
          "to_code": 1,
          "rt_ms": 6334
        },
        {
          "step": 6,
          "from_code": 1,
          "key": "w",
          "valid": true,
          "mode": "grid",
          "direction": "快速巴士(W)·角点顺时针",
          "dir_code": "cw",
          "to_code": 3,
          "rt_ms": 6290
        },
        {
          "step": 7,
          "from_code": 3,
          "key": "d",
          "valid": true,
          "mode": "grid",
          "direction": "地铁(D)·下",
          "dir_code": "down",
          "to_code": 6,
          "rt_ms": 12000
        },
        {
          "step": 8,
          "from_code": 6,
          "key": "a",
          "valid": true,
          "mode": "grid",
          "direction": "地铁(A)·上",
          "dir_code": "up",
          "to_code": 3,
          "rt_ms": 5631
        },
        {
          "step": 9,
          "from_code": 3,
          "key": "a",
          "valid": false,
          "to_code": null,
          "rt_ms": 1761,
          "mode": "grid",
          "direction": "地铁(A)·上",
          "dir_code": "up"
        },
        {
          "step": 9,
          "from_code": 3,
          "key": "d",
          "valid": true,
          "mode": "grid",
          "direction": "地铁(D)·下",
          "dir_code": "down",
          "to_code": 6,
          "rt_ms": 624
        },
        {
          "step": 10,
          "from_code": 6,
          "key": "d",
          "valid": true,
          "mode": "grid",
          "direction": "地铁(D)·下",
          "dir_code": "down",
          "to_code": 9,
          "rt_ms": 551
        },
        {
          "step": 11,
          "from_code": 9,
          "key": "q",
          "valid": true,
          "mode": "grid",
          "direction": "公交(Q)·左",
          "dir_code": "left",
          "to_code": 8,
          "rt_ms": 6702
        }
      ],
      "total_steps": 11,
      "outcome": "success",
      "total_time_ms": 72627
    },
    "screen_id": "mix_navigation_trial",
    "phase": "main",
    "mix_session": 1,
    "mix_session_domain": "navigation",
    "mix_step_index": 16,
    "mix_step_total": 20,
    "experiment_order": "navigation-first",
    "pair_id": "G09",
    "category": "grid",
    "trial_id": "nav_16",
    "start_code": 6,
    "goal_code": 8,
    "goal_codes": [
      8
    ],
    "trial_type": "call-function",
    "trial_index": 18,
    "time_elapsed": 1080961,
    "internal_node_id": "0.0-18.0",
    "participant_id": "003"
  },
  {
    "value": {
      "phase": "main",
      "domain": "navigation",
      "trial_index": 17,
      "trial_progress": {
        "current": 17,
        "total": 20
      },
      "trial_id": "nav_17",
      "start_code": 2,
      "goal_code": 6,
      "goal_codes": [
        6
      ],
      "steps": [
        {
          "step": 1,
          "from_code": 2,
          "key": "e",
          "valid": true,
          "mode": "grid",
          "direction": "公交(E)·右",
          "dir_code": "right",
          "to_code": 3,
          "rt_ms": 22094
        },
        {
          "step": 2,
          "from_code": 3,
          "key": "e",
          "valid": false,
          "to_code": null,
          "rt_ms": 4303,
          "mode": "grid",
          "direction": "公交(E)·右",
          "dir_code": "right"
        },
        {
          "step": 2,
          "from_code": 3,
          "key": "q",
          "valid": true,
          "mode": "grid",
          "direction": "公交(Q)·左",
          "dir_code": "left",
          "to_code": 2,
          "rt_ms": 826
        },
        {
          "step": 3,
          "from_code": 2,
          "key": "e",
          "valid": true,
          "mode": "grid",
          "direction": "公交(E)·右",
          "dir_code": "right",
          "to_code": 3,
          "rt_ms": 4681
        },
        {
          "step": 4,
          "from_code": 3,
          "key": "w",
          "valid": true,
          "mode": "grid",
          "direction": "快速巴士(W)·角点顺时针",
          "dir_code": "cw",
          "to_code": 9,
          "rt_ms": 1019
        },
        {
          "step": 5,
          "from_code": 9,
          "key": "a",
          "valid": true,
          "mode": "grid",
          "direction": "地铁(A)·上",
          "dir_code": "up",
          "to_code": 6,
          "rt_ms": 6118
        }
      ],
      "total_steps": 5,
      "outcome": "success",
      "total_time_ms": 43479
    },
    "screen_id": "mix_navigation_trial",
    "phase": "main",
    "mix_session": 1,
    "mix_session_domain": "navigation",
    "mix_step_index": 17,
    "mix_step_total": 20,
    "experiment_order": "navigation-first",
    "pair_id": "G02",
    "category": "grid",
    "trial_id": "nav_17",
    "start_code": 2,
    "goal_code": 6,
    "goal_codes": [
      6
    ],
    "trial_type": "call-function",
    "trial_index": 19,
    "time_elapsed": 1124439,
    "internal_node_id": "0.0-19.0",
    "participant_id": "003"
  },
  {
    "value": {
      "phase": "main",
      "domain": "navigation",
      "trial_index": 18,
      "trial_progress": {
        "current": 18,
        "total": 20
      },
      "trial_id": "nav_18",
      "start_code": 6,
      "goal_code": 1,
      "goal_codes": [
        1
      ],
      "steps": [
        {
          "step": 1,
          "from_code": 6,
          "key": "e",
          "valid": false,
          "to_code": null,
          "rt_ms": 8746,
          "mode": "grid",
          "direction": "公交(E)·右",
          "dir_code": "right"
        },
        {
          "step": 1,
          "from_code": 6,
          "key": "q",
          "valid": true,
          "mode": "grid",
          "direction": "公交(Q)·左",
          "dir_code": "left",
          "to_code": 5,
          "rt_ms": 575
        },
        {
          "step": 2,
          "from_code": 5,
          "key": "a",
          "valid": true,
          "mode": "grid",
          "direction": "地铁(A)·上",
          "dir_code": "up",
          "to_code": 2,
          "rt_ms": 19343
        },
        {
          "step": 3,
          "from_code": 2,
          "key": "d",
          "valid": true,
          "mode": "grid",
          "direction": "地铁(D)·下",
          "dir_code": "down",
          "to_code": 5,
          "rt_ms": 3375
        },
        {
          "step": 4,
          "from_code": 5,
          "key": "d",
          "valid": true,
          "mode": "grid",
          "direction": "地铁(D)·下",
          "dir_code": "down",
          "to_code": 8,
          "rt_ms": 800
        },
        {
          "step": 5,
          "from_code": 8,
          "key": "q",
          "valid": true,
          "mode": "grid",
          "direction": "公交(Q)·左",
          "dir_code": "left",
          "to_code": 7,
          "rt_ms": 11385
        },
        {
          "step": 6,
          "from_code": 7,
          "key": "w",
          "valid": true,
          "mode": "grid",
          "direction": "快速巴士(W)·角点顺时针",
          "dir_code": "cw",
          "to_code": 1,
          "rt_ms": 2828
        }
      ],
      "total_steps": 6,
      "outcome": "success",
      "total_time_ms": 50874
    },
    "screen_id": "mix_navigation_trial",
    "phase": "main",
    "mix_session": 1,
    "mix_session_domain": "navigation",
    "mix_step_index": 18,
    "mix_step_total": 20,
    "experiment_order": "navigation-first",
    "pair_id": "T05",
    "category": "tie",
    "trial_id": "nav_18",
    "start_code": 6,
    "goal_code": 1,
    "goal_codes": [
      1
    ],
    "trial_type": "call-function",
    "trial_index": 20,
    "time_elapsed": 1175313,
    "internal_node_id": "0.0-20.0",
    "participant_id": "003"
  },
  {
    "value": {
      "phase": "main",
      "domain": "navigation",
      "trial_index": 19,
      "trial_progress": {
        "current": 19,
        "total": 20
      },
      "trial_id": "nav_19",
      "start_code": 2,
      "goal_code": 7,
      "goal_codes": [
        7
      ],
      "steps": [
        {
          "step": 1,
          "from_code": 2,
          "key": "d",
          "valid": true,
          "mode": "grid",
          "direction": "地铁(D)·下",
          "dir_code": "down",
          "to_code": 5,
          "rt_ms": 9459
        },
        {
          "step": 2,
          "from_code": 5,
          "key": "d",
          "valid": true,
          "mode": "grid",
          "direction": "地铁(D)·下",
          "dir_code": "down",
          "to_code": 8,
          "rt_ms": 8940
        },
        {
          "step": 3,
          "from_code": 8,
          "key": "d",
          "valid": false,
          "to_code": null,
          "rt_ms": 4162,
          "mode": "grid",
          "direction": "地铁(D)·下",
          "dir_code": "down"
        },
        {
          "step": 3,
          "from_code": 8,
          "key": "a",
          "valid": true,
          "mode": "grid",
          "direction": "地铁(A)·上",
          "dir_code": "up",
          "to_code": 5,
          "rt_ms": 701
        },
        {
          "step": 4,
          "from_code": 5,
          "key": "d",
          "valid": true,
          "mode": "grid",
          "direction": "地铁(D)·下",
          "dir_code": "down",
          "to_code": 8,
          "rt_ms": 5565
        },
        {
          "step": 5,
          "from_code": 8,
          "key": "q",
          "valid": true,
          "mode": "grid",
          "direction": "公交(Q)·左",
          "dir_code": "left",
          "to_code": 7,
          "rt_ms": 6747
        }
      ],
      "total_steps": 5,
      "outcome": "success",
      "total_time_ms": 41808
    },
    "screen_id": "mix_navigation_trial",
    "phase": "main",
    "mix_session": 1,
    "mix_session_domain": "navigation",
    "mix_step_index": 19,
    "mix_step_total": 20,
    "experiment_order": "navigation-first",
    "pair_id": "T02",
    "category": "tie",
    "trial_id": "nav_19",
    "start_code": 2,
    "goal_code": 7,
    "goal_codes": [
      7
    ],
    "trial_type": "call-function",
    "trial_index": 21,
    "time_elapsed": 1217121,
    "internal_node_id": "0.0-21.0",
    "participant_id": "003"
  },
  {
    "value": {
      "phase": "main",
      "domain": "navigation",
      "trial_index": 20,
      "trial_progress": {
        "current": 20,
        "total": 20
      },
      "trial_id": "nav_20",
      "start_code": 4,
      "goal_code": 9,
      "goal_codes": [
        9
      ],
      "steps": [
        {
          "step": 1,
          "from_code": 4,
          "key": "e",
          "valid": true,
          "mode": "grid",
          "direction": "公交(E)·右",
          "dir_code": "right",
          "to_code": 5,
          "rt_ms": 8431
        },
        {
          "step": 2,
          "from_code": 5,
          "key": "e",
          "valid": true,
          "mode": "grid",
          "direction": "公交(E)·右",
          "dir_code": "right",
          "to_code": 6,
          "rt_ms": 10435
        },
        {
          "step": 3,
          "from_code": 6,
          "key": "a",
          "valid": true,
          "mode": "grid",
          "direction": "地铁(A)·上",
          "dir_code": "up",
          "to_code": 3,
          "rt_ms": 9174
        },
        {
          "step": 4,
          "from_code": 3,
          "key": "d",
          "valid": true,
          "mode": "grid",
          "direction": "地铁(D)·下",
          "dir_code": "down",
          "to_code": 6,
          "rt_ms": 835
        },
        {
          "step": 5,
          "from_code": 6,
          "key": "d",
          "valid": true,
          "mode": "grid",
          "direction": "地铁(D)·下",
          "dir_code": "down",
          "to_code": 9,
          "rt_ms": 363
        }
      ],
      "total_steps": 5,
      "outcome": "success",
      "total_time_ms": 32855
    },
    "screen_id": "mix_navigation_trial",
    "phase": "main",
    "mix_session": 1,
    "mix_session_domain": "navigation",
    "mix_step_index": 20,
    "mix_step_total": 20,
    "experiment_order": "navigation-first",
    "pair_id": "T04",
    "category": "tie",
    "trial_id": "nav_20",
    "start_code": 4,
    "goal_code": 9,
    "goal_codes": [
      9
    ],
    "trial_type": "call-function",
    "trial_index": 22,
    "time_elapsed": 1249975,
    "internal_node_id": "0.0-22.0",
    "participant_id": "003"
  },
  {
    "rt": 6223,
    "stimulus": "<div class=\"nc-tail\" style=\"max-width:720px;margin:0 auto;padding:20px 18px 32px;color:#e8ecf6;\"><h2 style='font-size:20px;margin:0 0 14px'>阶段 B · 节点间可达容易程度（共 36 题）</h2><p style='line-height:1.7;font-size:15px;color:#c4ccd8'>你将看到 36 对节点（全枚举，每对一次）。请凭你的直觉判断：<strong>这两个节点之间多容易到达？</strong><br><br>① 很难到达 → ⑤ 很容易到达。</p><p class='nc-inst-hint' style='margin-top:20px'>按 <strong>空格</strong> 继续</p></div>",
    "response": " ",
    "phase": "tail_task",
    "tail_domain": "navigation",
    "tail_subphase": "intro",
    "tail_intro_phase": "B",
    "screen_id": "tail_intro_B",
    "trial_type": "html-keyboard-response",
    "trial_index": 23,
    "time_elapsed": 1256201,
    "internal_node_id": "0.0-23.0",
    "participant_id": "003",
    "experiment_order": "navigation-first"
  },
  {
    "value": {
      "tail_response_reachability": 5,
      "tail_rt_ms": 10963,
      "tail_stimulus_pair": "5-6",
      "tail_grid_distance": 1,
      "value": {
        "tail_phase": "B",
        "trial_id": "B-27",
        "response": 5,
        "grid_distance": 1,
        "a": 5,
        "b": 6,
        "display_left": 6,
        "display_right": 5
      }
    },
    "phase": "tail_task",
    "tail_domain": "navigation",
    "tail_subphase": "B",
    "tail_trial_id": "B-27",
    "tail_category": "d1",
    "screen_id": "tail_trial_B_B-27",
    "tail_present_version": "v3",
    "trial_type": "call-function",
    "trial_index": 24,
    "time_elapsed": 1267165,
    "internal_node_id": "0.0-24.0",
    "participant_id": "003",
    "experiment_order": "navigation-first"
  },
  {
    "value": {
      "tail_response_reachability": 2,
      "tail_rt_ms": 10470,
      "tail_stimulus_pair": "2-8",
      "tail_grid_distance": 2,
      "value": {
        "tail_phase": "B",
        "trial_id": "B-14",
        "response": 2,
        "grid_distance": 2,
        "a": 2,
        "b": 8,
        "display_left": 2,
        "display_right": 8
      }
    },
    "phase": "tail_task",
    "tail_domain": "navigation",
    "tail_subphase": "B",
    "tail_trial_id": "B-14",
    "tail_category": "d2",
    "screen_id": "tail_trial_B_B-14",
    "tail_present_version": "v3",
    "trial_type": "call-function",
    "trial_index": 25,
    "time_elapsed": 1277636,
    "internal_node_id": "0.0-25.0",
    "participant_id": "003",
    "experiment_order": "navigation-first"
  },
  {
    "value": {
      "tail_response_reachability": 5,
      "tail_rt_ms": 5685,
      "tail_stimulus_pair": "7-9",
      "tail_grid_distance": 2,
      "value": {
        "tail_phase": "B",
        "trial_id": "B-35",
        "response": 5,
        "grid_distance": 2,
        "a": 7,
        "b": 9,
        "display_left": 9,
        "display_right": 7
      }
    },
    "phase": "tail_task",
    "tail_domain": "navigation",
    "tail_subphase": "B",
    "tail_trial_id": "B-35",
    "tail_category": "d2",
    "screen_id": "tail_trial_B_B-35",
    "tail_present_version": "v3",
    "trial_type": "call-function",
    "trial_index": 26,
    "time_elapsed": 1283321,
    "internal_node_id": "0.0-26.0",
    "participant_id": "003",
    "experiment_order": "navigation-first"
  },
  {
    "value": {
      "tail_response_reachability": 4,
      "tail_rt_ms": 9817,
      "tail_stimulus_pair": "2-9",
      "tail_grid_distance": 3,
      "value": {
        "tail_phase": "B",
        "trial_id": "B-15",
        "response": 4,
        "grid_distance": 3,
        "a": 2,
        "b": 9,
        "display_left": 9,
        "display_right": 2
      }
    },
    "phase": "tail_task",
    "tail_domain": "navigation",
    "tail_subphase": "B",
    "tail_trial_id": "B-15",
    "tail_category": "d3",
    "screen_id": "tail_trial_B_B-15",
    "tail_present_version": "v3",
    "trial_type": "call-function",
    "trial_index": 27,
    "time_elapsed": 1293138,
    "internal_node_id": "0.0-27.0",
    "participant_id": "003",
    "experiment_order": "navigation-first"
  },
  {
    "value": {
      "tail_response_reachability": 4,
      "tail_rt_ms": 5147,
      "tail_stimulus_pair": "7-8",
      "tail_grid_distance": 1,
      "value": {
        "tail_phase": "B",
        "trial_id": "B-34",
        "response": 4,
        "grid_distance": 1,
        "a": 7,
        "b": 8,
        "display_left": 8,
        "display_right": 7
      }
    },
    "phase": "tail_task",
    "tail_domain": "navigation",
    "tail_subphase": "B",
    "tail_trial_id": "B-34",
    "tail_category": "d1",
    "screen_id": "tail_trial_B_B-34",
    "tail_present_version": "v3",
    "trial_type": "call-function",
    "trial_index": 28,
    "time_elapsed": 1298286,
    "internal_node_id": "0.0-28.0",
    "participant_id": "003",
    "experiment_order": "navigation-first"
  },
  {
    "value": {
      "tail_response_reachability": 2,
      "tail_rt_ms": 2376,
      "tail_stimulus_pair": "3-7",
      "tail_grid_distance": 4,
      "value": {
        "tail_phase": "B",
        "trial_id": "B-19",
        "response": 2,
        "grid_distance": 4,
        "a": 3,
        "b": 7,
        "display_left": 3,
        "display_right": 7
      }
    },
    "phase": "tail_task",
    "tail_domain": "navigation",
    "tail_subphase": "B",
    "tail_trial_id": "B-19",
    "tail_category": "d4",
    "screen_id": "tail_trial_B_B-19",
    "tail_present_version": "v3",
    "trial_type": "call-function",
    "trial_index": 29,
    "time_elapsed": 1300662,
    "internal_node_id": "0.0-29.0",
    "participant_id": "003",
    "experiment_order": "navigation-first"
  },
  {
    "value": {
      "tail_response_reachability": 1,
      "tail_rt_ms": 4477,
      "tail_stimulus_pair": "4-7",
      "tail_grid_distance": 1,
      "value": {
        "tail_phase": "B",
        "trial_id": "B-24",
        "response": 1,
        "grid_distance": 1,
        "a": 4,
        "b": 7,
        "display_left": 4,
        "display_right": 7
      }
    },
    "phase": "tail_task",
    "tail_domain": "navigation",
    "tail_subphase": "B",
    "tail_trial_id": "B-24",
    "tail_category": "d1",
    "screen_id": "tail_trial_B_B-24",
    "tail_present_version": "v3",
    "trial_type": "call-function",
    "trial_index": 30,
    "time_elapsed": 1305139,
    "internal_node_id": "0.0-30.0",
    "participant_id": "003",
    "experiment_order": "navigation-first"
  },
  {
    "value": {
      "tail_response_reachability": 5,
      "tail_rt_ms": 4446,
      "tail_stimulus_pair": "4-6",
      "tail_grid_distance": 2,
      "value": {
        "tail_phase": "B",
        "trial_id": "B-23",
        "response": 5,
        "grid_distance": 2,
        "a": 4,
        "b": 6,
        "display_left": 4,
        "display_right": 6
      }
    },
    "phase": "tail_task",
    "tail_domain": "navigation",
    "tail_subphase": "B",
    "tail_trial_id": "B-23",
    "tail_category": "d2",
    "screen_id": "tail_trial_B_B-23",
    "tail_present_version": "v3",
    "trial_type": "call-function",
    "trial_index": 31,
    "time_elapsed": 1309585,
    "internal_node_id": "0.0-31.0",
    "participant_id": "003",
    "experiment_order": "navigation-first"
  },
  {
    "value": {
      "tail_response_reachability": 3,
      "tail_rt_ms": 10705,
      "tail_stimulus_pair": "3-6",
      "tail_grid_distance": 1,
      "value": {
        "tail_phase": "B",
        "trial_id": "B-18",
        "response": 3,
        "grid_distance": 1,
        "a": 3,
        "b": 6,
        "display_left": 6,
        "display_right": 3
      }
    },
    "phase": "tail_task",
    "tail_domain": "navigation",
    "tail_subphase": "B",
    "tail_trial_id": "B-18",
    "tail_category": "d1",
    "screen_id": "tail_trial_B_B-18",
    "tail_present_version": "v3",
    "trial_type": "call-function",
    "trial_index": 32,
    "time_elapsed": 1320291,
    "internal_node_id": "0.0-32.0",
    "participant_id": "003",
    "experiment_order": "navigation-first"
  },
  {
    "value": {
      "tail_response_reachability": 1,
      "tail_rt_ms": 8101,
      "tail_stimulus_pair": "1-2",
      "tail_grid_distance": 1,
      "value": {
        "tail_phase": "B",
        "trial_id": "B-01",
        "response": 1,
        "grid_distance": 1,
        "a": 1,
        "b": 2,
        "display_left": 1,
        "display_right": 2
      }
    },
    "phase": "tail_task",
    "tail_domain": "navigation",
    "tail_subphase": "B",
    "tail_trial_id": "B-01",
    "tail_category": "d1",
    "screen_id": "tail_trial_B_B-01",
    "tail_present_version": "v3",
    "trial_type": "call-function",
    "trial_index": 33,
    "time_elapsed": 1328392,
    "internal_node_id": "0.0-33.0",
    "participant_id": "003",
    "experiment_order": "navigation-first"
  },
  {
    "value": {
      "tail_response_reachability": 5,
      "tail_rt_ms": 2377,
      "tail_stimulus_pair": "6-9",
      "tail_grid_distance": 1,
      "value": {
        "tail_phase": "B",
        "trial_id": "B-33",
        "response": 5,
        "grid_distance": 1,
        "a": 6,
        "b": 9,
        "display_left": 9,
        "display_right": 6
      }
    },
    "phase": "tail_task",
    "tail_domain": "navigation",
    "tail_subphase": "B",
    "tail_trial_id": "B-33",
    "tail_category": "d1",
    "screen_id": "tail_trial_B_B-33",
    "tail_present_version": "v3",
    "trial_type": "call-function",
    "trial_index": 34,
    "time_elapsed": 1330769,
    "internal_node_id": "0.0-34.0",
    "participant_id": "003",
    "experiment_order": "navigation-first"
  },
  {
    "value": {
      "tail_response_reachability": 2,
      "tail_rt_ms": 12218,
      "tail_stimulus_pair": "3-8",
      "tail_grid_distance": 3,
      "value": {
        "tail_phase": "B",
        "trial_id": "B-20",
        "response": 2,
        "grid_distance": 3,
        "a": 3,
        "b": 8,
        "display_left": 3,
        "display_right": 8
      }
    },
    "phase": "tail_task",
    "tail_domain": "navigation",
    "tail_subphase": "B",
    "tail_trial_id": "B-20",
    "tail_category": "d3",
    "screen_id": "tail_trial_B_B-20",
    "tail_present_version": "v3",
    "trial_type": "call-function",
    "trial_index": 35,
    "time_elapsed": 1342988,
    "internal_node_id": "0.0-35.0",
    "participant_id": "003",
    "experiment_order": "navigation-first"
  },
  {
    "value": {
      "tail_response_reachability": 5,
      "tail_rt_ms": 3697,
      "tail_stimulus_pair": "5-9",
      "tail_grid_distance": 2,
      "value": {
        "tail_phase": "B",
        "trial_id": "B-30",
        "response": 5,
        "grid_distance": 2,
        "a": 5,
        "b": 9,
        "display_left": 9,
        "display_right": 5
      }
    },
    "phase": "tail_task",
    "tail_domain": "navigation",
    "tail_subphase": "B",
    "tail_trial_id": "B-30",
    "tail_category": "d2",
    "screen_id": "tail_trial_B_B-30",
    "tail_present_version": "v3",
    "trial_type": "call-function",
    "trial_index": 36,
    "time_elapsed": 1346686,
    "internal_node_id": "0.0-36.0",
    "participant_id": "003",
    "experiment_order": "navigation-first"
  },
  {
    "value": {
      "tail_response_reachability": 3,
      "tail_rt_ms": 11175,
      "tail_stimulus_pair": "3-5",
      "tail_grid_distance": 2,
      "value": {
        "tail_phase": "B",
        "trial_id": "B-17",
        "response": 3,
        "grid_distance": 2,
        "a": 3,
        "b": 5,
        "display_left": 5,
        "display_right": 3
      }
    },
    "phase": "tail_task",
    "tail_domain": "navigation",
    "tail_subphase": "B",
    "tail_trial_id": "B-17",
    "tail_category": "d2",
    "screen_id": "tail_trial_B_B-17",
    "tail_present_version": "v3",
    "trial_type": "call-function",
    "trial_index": 37,
    "time_elapsed": 1357861,
    "internal_node_id": "0.0-37.0",
    "participant_id": "003",
    "experiment_order": "navigation-first"
  },
  {
    "value": {
      "tail_response_reachability": 1,
      "tail_rt_ms": 3097,
      "tail_stimulus_pair": "1-3",
      "tail_grid_distance": 2,
      "value": {
        "tail_phase": "B",
        "trial_id": "B-02",
        "response": 1,
        "grid_distance": 2,
        "a": 1,
        "b": 3,
        "display_left": 3,
        "display_right": 1
      }
    },
    "phase": "tail_task",
    "tail_domain": "navigation",
    "tail_subphase": "B",
    "tail_trial_id": "B-02",
    "tail_category": "d2",
    "screen_id": "tail_trial_B_B-02",
    "tail_present_version": "v3",
    "trial_type": "call-function",
    "trial_index": 38,
    "time_elapsed": 1360959,
    "internal_node_id": "0.0-38.0",
    "participant_id": "003",
    "experiment_order": "navigation-first"
  },
  {
    "value": {
      "tail_response_reachability": 5,
      "tail_rt_ms": 8453,
      "tail_stimulus_pair": "2-5",
      "tail_grid_distance": 1,
      "value": {
        "tail_phase": "B",
        "trial_id": "B-11",
        "response": 5,
        "grid_distance": 1,
        "a": 2,
        "b": 5,
        "display_left": 5,
        "display_right": 2
      }
    },
    "phase": "tail_task",
    "tail_domain": "navigation",
    "tail_subphase": "B",
    "tail_trial_id": "B-11",
    "tail_category": "d1",
    "screen_id": "tail_trial_B_B-11",
    "tail_present_version": "v3",
    "trial_type": "call-function",
    "trial_index": 39,
    "time_elapsed": 1369413,
    "internal_node_id": "0.0-39.0",
    "participant_id": "003",
    "experiment_order": "navigation-first"
  },
  {
    "value": {
      "tail_response_reachability": 5,
      "tail_rt_ms": 2525,
      "tail_stimulus_pair": "2-6",
      "tail_grid_distance": 2,
      "value": {
        "tail_phase": "B",
        "trial_id": "B-12",
        "response": 5,
        "grid_distance": 2,
        "a": 2,
        "b": 6,
        "display_left": 2,
        "display_right": 6
      }
    },
    "phase": "tail_task",
    "tail_domain": "navigation",
    "tail_subphase": "B",
    "tail_trial_id": "B-12",
    "tail_category": "d2",
    "screen_id": "tail_trial_B_B-12",
    "tail_present_version": "v3",
    "trial_type": "call-function",
    "trial_index": 40,
    "time_elapsed": 1371939,
    "internal_node_id": "0.0-40.0",
    "participant_id": "003",
    "experiment_order": "navigation-first"
  },
  {
    "value": {
      "tail_response_reachability": 4,
      "tail_rt_ms": 11385,
      "tail_stimulus_pair": "4-5",
      "tail_grid_distance": 1,
      "value": {
        "tail_phase": "B",
        "trial_id": "B-22",
        "response": 4,
        "grid_distance": 1,
        "a": 4,
        "b": 5,
        "display_left": 5,
        "display_right": 4
      }
    },
    "phase": "tail_task",
    "tail_domain": "navigation",
    "tail_subphase": "B",
    "tail_trial_id": "B-22",
    "tail_category": "d1",
    "screen_id": "tail_trial_B_B-22",
    "tail_present_version": "v3",
    "trial_type": "call-function",
    "trial_index": 41,
    "time_elapsed": 1383324,
    "internal_node_id": "0.0-41.0",
    "participant_id": "003",
    "experiment_order": "navigation-first"
  },
  {
    "value": {
      "tail_response_reachability": 5,
      "tail_rt_ms": 11417,
      "tail_stimulus_pair": "4-8",
      "tail_grid_distance": 2,
      "value": {
        "tail_phase": "B",
        "trial_id": "B-25",
        "response": 5,
        "grid_distance": 2,
        "a": 4,
        "b": 8,
        "display_left": 8,
        "display_right": 4
      }
    },
    "phase": "tail_task",
    "tail_domain": "navigation",
    "tail_subphase": "B",
    "tail_trial_id": "B-25",
    "tail_category": "d2",
    "screen_id": "tail_trial_B_B-25",
    "tail_present_version": "v3",
    "trial_type": "call-function",
    "trial_index": 42,
    "time_elapsed": 1394742,
    "internal_node_id": "0.0-42.0",
    "participant_id": "003",
    "experiment_order": "navigation-first"
  },
  {
    "value": {
      "tail_response_reachability": 5,
      "tail_rt_ms": 7528,
      "tail_stimulus_pair": "2-4",
      "tail_grid_distance": 2,
      "value": {
        "tail_phase": "B",
        "trial_id": "B-10",
        "response": 5,
        "grid_distance": 2,
        "a": 2,
        "b": 4,
        "display_left": 4,
        "display_right": 2
      }
    },
    "phase": "tail_task",
    "tail_domain": "navigation",
    "tail_subphase": "B",
    "tail_trial_id": "B-10",
    "tail_category": "d2",
    "screen_id": "tail_trial_B_B-10",
    "tail_present_version": "v3",
    "trial_type": "call-function",
    "trial_index": 43,
    "time_elapsed": 1402271,
    "internal_node_id": "0.0-43.0",
    "participant_id": "003",
    "experiment_order": "navigation-first"
  },
  {
    "value": {
      "tail_response_reachability": 2,
      "tail_rt_ms": 7712,
      "tail_stimulus_pair": "1-6",
      "tail_grid_distance": 3,
      "value": {
        "tail_phase": "B",
        "trial_id": "B-05",
        "response": 2,
        "grid_distance": 3,
        "a": 1,
        "b": 6,
        "display_left": 6,
        "display_right": 1
      }
    },
    "phase": "tail_task",
    "tail_domain": "navigation",
    "tail_subphase": "B",
    "tail_trial_id": "B-05",
    "tail_category": "d3",
    "screen_id": "tail_trial_B_B-05",
    "tail_present_version": "v3",
    "trial_type": "call-function",
    "trial_index": 44,
    "time_elapsed": 1409983,
    "internal_node_id": "0.0-44.0",
    "participant_id": "003",
    "experiment_order": "navigation-first"
  },
  {
    "value": {
      "tail_response_reachability": 3,
      "tail_rt_ms": 7455,
      "tail_stimulus_pair": "1-5",
      "tail_grid_distance": 2,
      "value": {
        "tail_phase": "B",
        "trial_id": "B-04",
        "response": 3,
        "grid_distance": 2,
        "a": 1,
        "b": 5,
        "display_left": 5,
        "display_right": 1
      }
    },
    "phase": "tail_task",
    "tail_domain": "navigation",
    "tail_subphase": "B",
    "tail_trial_id": "B-04",
    "tail_category": "d2",
    "screen_id": "tail_trial_B_B-04",
    "tail_present_version": "v3",
    "trial_type": "call-function",
    "trial_index": 45,
    "time_elapsed": 1417439,
    "internal_node_id": "0.0-45.0",
    "participant_id": "003",
    "experiment_order": "navigation-first"
  },
  {
    "value": {
      "tail_response_reachability": 2,
      "tail_rt_ms": 9473,
      "tail_stimulus_pair": "1-9",
      "tail_grid_distance": 4,
      "value": {
        "tail_phase": "B",
        "trial_id": "B-08",
        "response": 2,
        "grid_distance": 4,
        "a": 1,
        "b": 9,
        "display_left": 9,
        "display_right": 1
      }
    },
    "phase": "tail_task",
    "tail_domain": "navigation",
    "tail_subphase": "B",
    "tail_trial_id": "B-08",
    "tail_category": "d4",
    "screen_id": "tail_trial_B_B-08",
    "tail_present_version": "v3",
    "trial_type": "call-function",
    "trial_index": 46,
    "time_elapsed": 1426912,
    "internal_node_id": "0.0-46.0",
    "participant_id": "003",
    "experiment_order": "navigation-first"
  },
  {
    "value": {
      "tail_response_reachability": 1,
      "tail_rt_ms": 9240,
      "tail_stimulus_pair": "6-8",
      "tail_grid_distance": 2,
      "value": {
        "tail_phase": "B",
        "trial_id": "B-32",
        "response": 1,
        "grid_distance": 2,
        "a": 6,
        "b": 8,
        "display_left": 8,
        "display_right": 6
      }
    },
    "phase": "tail_task",
    "tail_domain": "navigation",
    "tail_subphase": "B",
    "tail_trial_id": "B-32",
    "tail_category": "d2",
    "screen_id": "tail_trial_B_B-32",
    "tail_present_version": "v3",
    "trial_type": "call-function",
    "trial_index": 47,
    "time_elapsed": 1436153,
    "internal_node_id": "0.0-47.0",
    "participant_id": "003",
    "experiment_order": "navigation-first"
  },
  {
    "value": {
      "tail_response_reachability": 5,
      "tail_rt_ms": 2586,
      "tail_stimulus_pair": "4-9",
      "tail_grid_distance": 3,
      "value": {
        "tail_phase": "B",
        "trial_id": "B-26",
        "response": 5,
        "grid_distance": 3,
        "a": 4,
        "b": 9,
        "display_left": 4,
        "display_right": 9
      }
    },
    "phase": "tail_task",
    "tail_domain": "navigation",
    "tail_subphase": "B",
    "tail_trial_id": "B-26",
    "tail_category": "d3",
    "screen_id": "tail_trial_B_B-26",
    "tail_present_version": "v3",
    "trial_type": "call-function",
    "trial_index": 48,
    "time_elapsed": 1438739,
    "internal_node_id": "0.0-48.0",
    "participant_id": "003",
    "experiment_order": "navigation-first"
  },
  {
    "value": {
      "tail_response_reachability": 2,
      "tail_rt_ms": 9144,
      "tail_stimulus_pair": "2-3",
      "tail_grid_distance": 1,
      "value": {
        "tail_phase": "B",
        "trial_id": "B-09",
        "response": 2,
        "grid_distance": 1,
        "a": 2,
        "b": 3,
        "display_left": 2,
        "display_right": 3
      }
    },
    "phase": "tail_task",
    "tail_domain": "navigation",
    "tail_subphase": "B",
    "tail_trial_id": "B-09",
    "tail_category": "d1",
    "screen_id": "tail_trial_B_B-09",
    "tail_present_version": "v3",
    "trial_type": "call-function",
    "trial_index": 49,
    "time_elapsed": 1447884,
    "internal_node_id": "0.0-49.0",
    "participant_id": "003",
    "experiment_order": "navigation-first"
  },
  {
    "value": {
      "tail_response_reachability": 3,
      "tail_rt_ms": 6893,
      "tail_stimulus_pair": "3-4",
      "tail_grid_distance": 3,
      "value": {
        "tail_phase": "B",
        "trial_id": "B-16",
        "response": 3,
        "grid_distance": 3,
        "a": 3,
        "b": 4,
        "display_left": 3,
        "display_right": 4
      }
    },
    "phase": "tail_task",
    "tail_domain": "navigation",
    "tail_subphase": "B",
    "tail_trial_id": "B-16",
    "tail_category": "d3",
    "screen_id": "tail_trial_B_B-16",
    "tail_present_version": "v3",
    "trial_type": "call-function",
    "trial_index": 50,
    "time_elapsed": 1454777,
    "internal_node_id": "0.0-50.0",
    "participant_id": "003",
    "experiment_order": "navigation-first"
  },
  {
    "value": {
      "tail_response_reachability": 1,
      "tail_rt_ms": 6727,
      "tail_stimulus_pair": "5-7",
      "tail_grid_distance": 2,
      "value": {
        "tail_phase": "B",
        "trial_id": "B-28",
        "response": 1,
        "grid_distance": 2,
        "a": 5,
        "b": 7,
        "display_left": 5,
        "display_right": 7
      }
    },
    "phase": "tail_task",
    "tail_domain": "navigation",
    "tail_subphase": "B",
    "tail_trial_id": "B-28",
    "tail_category": "d2",
    "screen_id": "tail_trial_B_B-28",
    "tail_present_version": "v3",
    "trial_type": "call-function",
    "trial_index": 51,
    "time_elapsed": 1461505,
    "internal_node_id": "0.0-51.0",
    "participant_id": "003",
    "experiment_order": "navigation-first"
  },
  {
    "value": {
      "tail_response_reachability": 2,
      "tail_rt_ms": 5505,
      "tail_stimulus_pair": "2-7",
      "tail_grid_distance": 3,
      "value": {
        "tail_phase": "B",
        "trial_id": "B-13",
        "response": 2,
        "grid_distance": 3,
        "a": 2,
        "b": 7,
        "display_left": 2,
        "display_right": 7
      }
    },
    "phase": "tail_task",
    "tail_domain": "navigation",
    "tail_subphase": "B",
    "tail_trial_id": "B-13",
    "tail_category": "d3",
    "screen_id": "tail_trial_B_B-13",
    "tail_present_version": "v3",
    "trial_type": "call-function",
    "trial_index": 52,
    "time_elapsed": 1467010,
    "internal_node_id": "0.0-52.0",
    "participant_id": "003",
    "experiment_order": "navigation-first"
  },
  {
    "value": {
      "tail_response_reachability": 2,
      "tail_rt_ms": 13290,
      "tail_stimulus_pair": "8-9",
      "tail_grid_distance": 1,
      "value": {
        "tail_phase": "B",
        "trial_id": "B-36",
        "response": 2,
        "grid_distance": 1,
        "a": 8,
        "b": 9,
        "display_left": 9,
        "display_right": 8
      }
    },
    "phase": "tail_task",
    "tail_domain": "navigation",
    "tail_subphase": "B",
    "tail_trial_id": "B-36",
    "tail_category": "d1",
    "screen_id": "tail_trial_B_B-36",
    "tail_present_version": "v3",
    "trial_type": "call-function",
    "trial_index": 53,
    "time_elapsed": 1480301,
    "internal_node_id": "0.0-53.0",
    "participant_id": "003",
    "experiment_order": "navigation-first"
  },
  {
    "value": {
      "tail_response_reachability": 2,
      "tail_rt_ms": 8811,
      "tail_stimulus_pair": "5-8",
      "tail_grid_distance": 1,
      "value": {
        "tail_phase": "B",
        "trial_id": "B-29",
        "response": 2,
        "grid_distance": 1,
        "a": 5,
        "b": 8,
        "display_left": 5,
        "display_right": 8
      }
    },
    "phase": "tail_task",
    "tail_domain": "navigation",
    "tail_subphase": "B",
    "tail_trial_id": "B-29",
    "tail_category": "d1",
    "screen_id": "tail_trial_B_B-29",
    "tail_present_version": "v3",
    "trial_type": "call-function",
    "trial_index": 54,
    "time_elapsed": 1489112,
    "internal_node_id": "0.0-54.0",
    "participant_id": "003",
    "experiment_order": "navigation-first"
  },
  {
    "value": {
      "tail_response_reachability": 4,
      "tail_rt_ms": 5821,
      "tail_stimulus_pair": "3-9",
      "tail_grid_distance": 2,
      "value": {
        "tail_phase": "B",
        "trial_id": "B-21",
        "response": 4,
        "grid_distance": 2,
        "a": 3,
        "b": 9,
        "display_left": 9,
        "display_right": 3
      }
    },
    "phase": "tail_task",
    "tail_domain": "navigation",
    "tail_subphase": "B",
    "tail_trial_id": "B-21",
