[
  {
    "rt": 1889,
    "stimulus": "<div class='nc-inst'><h2>正式测试（3 个 Session）</h2><p>本版本共 <strong>3</strong> 个正式 Session：<strong>前两个</strong>为纯导航或纯合成块（取决于您选择的顺序）。</p><p><strong>每个单任务 Session 的正式试次前</strong>，会先进行与<strong>该任务</strong>对应的自由探索练习；<strong>Session 3 为混合试次</strong>（导航与合成交替，不再单独加练习块）。</p><p>完成<strong>纯导航</strong>或<strong>纯合成</strong> Session 后，将各进行一段<strong>书面答题</strong>（可达容易程度、动作组整体感、中转报告）；<strong>全部 Session 结束后</strong>为<strong>空间摆放式地图还原</strong>。</p><p>各 Session 开始前有简要说明；试次进度在界面顶部显示。</p><p class='nc-inst-hint'>按 <strong>空格</strong> 开始（接下来将进入 Session 1 前的相关阶段）。</p></div>",
    "response": " ",
    "screen_id": "mix_pre_main_intro",
    "trial_type": "html-keyboard-response",
    "trial_index": 0,
    "time_elapsed": 1891,
    "internal_node_id": "0.0-0.0",
    "participant_id": "005",
    "experiment_order": "navigation-first"
  },
  {
    "value": {
      "phase": "exploration",
      "domain": "navigation",
      "completed": true,
      "exploration_skipped": false,
      "skip_reason": null,
      "visit_counts": {
        "1": 21,
        "2": 12,
        "3": 8,
        "4": 23,
        "5": 7,
        "6": 2,
        "7": 12,
        "8": 2,
        "9": 4
      },
      "steps": [
        {
          "step": 1,
          "from_code": 1,
          "key": "w",
          "valid": true,
          "mode": "grid",
          "direction": "快速巴士(W)·角点顺时针",
          "dir_code": "cw",
          "to_code": 3,
          "rt_ms": 2494
        },
        {
          "step": 2,
          "from_code": 3,
          "key": "w",
          "valid": true,
          "mode": "grid",
          "direction": "快速巴士(W)·角点顺时针",
          "dir_code": "cw",
          "to_code": 9,
          "rt_ms": 4046
        },
        {
          "step": 3,
          "from_code": 9,
          "key": "w",
          "valid": true,
          "mode": "grid",
          "direction": "快速巴士(W)·角点顺时针",
          "dir_code": "cw",
          "to_code": 7,
          "rt_ms": 2225
        },
        {
          "step": 4,
          "from_code": 7,
          "key": "w",
          "valid": true,
          "mode": "grid",
          "direction": "快速巴士(W)·角点顺时针",
          "dir_code": "cw",
          "to_code": 1,
          "rt_ms": 1753
        },
        {
          "step": 5,
          "from_code": 1,
          "key": "a",
          "valid": false,
          "to_code": null,
          "rt_ms": 2258,
          "mode": "grid",
          "direction": "地铁(A)·上",
          "dir_code": "up"
        },
        {
          "step": 5,
          "from_code": 1,
          "key": "d",
          "valid": true,
          "mode": "grid",
          "direction": "地铁(D)·下",
          "dir_code": "down",
          "to_code": 4,
          "rt_ms": 4331
        },
        {
          "step": 6,
          "from_code": 4,
          "key": "d",
          "valid": true,
          "mode": "grid",
          "direction": "地铁(D)·下",
          "dir_code": "down",
          "to_code": 7,
          "rt_ms": 988
        },
        {
          "step": 7,
          "from_code": 7,
          "key": "a",
          "valid": true,
          "mode": "grid",
          "direction": "地铁(A)·上",
          "dir_code": "up",
          "to_code": 4,
          "rt_ms": 803
        },
        {
          "step": 8,
          "from_code": 4,
          "key": "a",
          "valid": true,
          "mode": "grid",
          "direction": "地铁(A)·上",
          "dir_code": "up",
          "to_code": 1,
          "rt_ms": 595
        },
        {
          "step": 9,
          "from_code": 1,
          "key": "d",
          "valid": true,
          "mode": "grid",
          "direction": "地铁(D)·下",
          "dir_code": "down",
          "to_code": 4,
          "rt_ms": 8871
        },
        {
          "step": 10,
          "from_code": 4,
          "key": "a",
          "valid": true,
          "mode": "grid",
          "direction": "地铁(A)·上",
          "dir_code": "up",
          "to_code": 1,
          "rt_ms": 5604
        },
        {
          "step": 11,
          "from_code": 1,
          "key": "d",
          "valid": true,
          "mode": "grid",
          "direction": "地铁(D)·下",
          "dir_code": "down",
          "to_code": 4,
          "rt_ms": 955
        },
        {
          "step": 12,
          "from_code": 4,
          "key": "d",
          "valid": true,
          "mode": "grid",
          "direction": "地铁(D)·下",
          "dir_code": "down",
          "to_code": 7,
          "rt_ms": 110
        },
        {
          "step": 13,
          "from_code": 7,
          "key": "a",
          "valid": true,
          "mode": "grid",
          "direction": "地铁(A)·上",
          "dir_code": "up",
          "to_code": 4,
          "rt_ms": 211
        },
        {
          "step": 14,
          "from_code": 4,
          "key": "a",
          "valid": true,
          "mode": "grid",
          "direction": "地铁(A)·上",
          "dir_code": "up",
          "to_code": 1,
          "rt_ms": 184
        },
        {
          "step": 15,
          "from_code": 1,
          "key": "d",
          "valid": true,
          "mode": "grid",
          "direction": "地铁(D)·下",
          "dir_code": "down",
          "to_code": 4,
          "rt_ms": 4708
        },
        {
          "step": 16,
          "from_code": 4,
          "key": "d",
          "valid": true,
          "mode": "grid",
          "direction": "地铁(D)·下",
          "dir_code": "down",
          "to_code": 7,
          "rt_ms": 735
        },
        {
          "step": 17,
          "from_code": 7,
          "key": "d",
          "valid": false,
          "to_code": null,
          "rt_ms": 1758,
          "mode": "grid",
          "direction": "地铁(D)·下",
          "dir_code": "down"
        },
        {
          "step": 17,
          "from_code": 7,
          "key": "a",
          "valid": true,
          "mode": "grid",
          "direction": "地铁(A)·上",
          "dir_code": "up",
          "to_code": 4,
          "rt_ms": 637
        },
        {
          "step": 18,
          "from_code": 4,
          "key": "a",
          "valid": true,
          "mode": "grid",
          "direction": "地铁(A)·上",
          "dir_code": "up",
          "to_code": 1,
          "rt_ms": 446
        },
        {
          "step": 19,
          "from_code": 1,
          "key": "d",
          "valid": true,
          "mode": "grid",
          "direction": "地铁(D)·下",
          "dir_code": "down",
          "to_code": 4,
          "rt_ms": 10586
        },
        {
          "step": 20,
          "from_code": 4,
          "key": "d",
          "valid": true,
          "mode": "grid",
          "direction": "地铁(D)·下",
          "dir_code": "down",
          "to_code": 7,
          "rt_ms": 941
        },
        {
          "step": 21,
          "from_code": 7,
          "key": "a",
          "valid": true,
          "mode": "grid",
          "direction": "地铁(A)·上",
          "dir_code": "up",
          "to_code": 4,
          "rt_ms": 690
        },
        {
          "step": 22,
          "from_code": 4,
          "key": "a",
          "valid": true,
          "mode": "grid",
          "direction": "地铁(A)·上",
          "dir_code": "up",
          "to_code": 1,
          "rt_ms": 368
        },
        {
          "step": 23,
          "from_code": 1,
          "key": "d",
          "valid": true,
          "mode": "grid",
          "direction": "地铁(D)·下",
          "dir_code": "down",
          "to_code": 4,
          "rt_ms": 1146
        },
        {
          "step": 24,
          "from_code": 4,
          "key": "a",
          "valid": true,
          "mode": "grid",
          "direction": "地铁(A)·上",
          "dir_code": "up",
          "to_code": 1,
          "rt_ms": 491
        },
        {
          "step": 25,
          "from_code": 1,
          "key": "a",
          "valid": false,
          "to_code": null,
          "rt_ms": 1596,
          "mode": "grid",
          "direction": "地铁(A)·上",
          "dir_code": "up"
        },
        {
          "step": 25,
          "from_code": 1,
          "key": "d",
          "valid": true,
          "mode": "grid",
          "direction": "地铁(D)·下",
          "dir_code": "down",
          "to_code": 4,
          "rt_ms": 569
        },
        {
          "step": 26,
          "from_code": 4,
          "key": "d",
          "valid": true,
          "mode": "grid",
          "direction": "地铁(D)·下",
          "dir_code": "down",
          "to_code": 7,
          "rt_ms": 711
        },
        {
          "step": 27,
          "from_code": 7,
          "key": "a",
          "valid": true,
          "mode": "grid",
          "direction": "地铁(A)·上",
          "dir_code": "up",
          "to_code": 4,
          "rt_ms": 715
        },
        {
          "step": 28,
          "from_code": 4,
          "key": "a",
          "valid": true,
          "mode": "grid",
          "direction": "地铁(A)·上",
          "dir_code": "up",
          "to_code": 1,
          "rt_ms": 468
        },
        {
          "step": 29,
          "from_code": 1,
          "key": "e",
          "valid": true,
          "mode": "grid",
          "direction": "公交(E)·右",
          "dir_code": "right",
          "to_code": 2,
          "rt_ms": 965
        },
        {
          "step": 30,
          "from_code": 2,
          "key": "e",
          "valid": true,
          "mode": "grid",
          "direction": "公交(E)·右",
          "dir_code": "right",
          "to_code": 3,
          "rt_ms": 1304
        },
        {
          "step": 31,
          "from_code": 3,
          "key": "q",
          "valid": true,
          "mode": "grid",
          "direction": "公交(Q)·左",
          "dir_code": "left",
          "to_code": 2,
          "rt_ms": 1331
        },
        {
          "step": 32,
          "from_code": 2,
          "key": "q",
          "valid": true,
          "mode": "grid",
          "direction": "公交(Q)·左",
          "dir_code": "left",
          "to_code": 1,
          "rt_ms": 436
        },
        {
          "step": 33,
          "from_code": 1,
          "key": "w",
          "valid": true,
          "mode": "grid",
          "direction": "快速巴士(W)·角点顺时针",
          "dir_code": "cw",
          "to_code": 3,
          "rt_ms": 7633
        },
        {
          "step": 34,
          "from_code": 3,
          "key": "a",
          "valid": false,
          "to_code": null,
          "rt_ms": 1523,
          "mode": "grid",
          "direction": "地铁(A)·上",
          "dir_code": "up"
        },
        {
          "step": 34,
          "from_code": 3,
          "key": "d",
          "valid": true,
          "mode": "grid",
          "direction": "地铁(D)·下",
          "dir_code": "down",
          "to_code": 6,
          "rt_ms": 403
        },
        {
          "step": 35,
          "from_code": 6,
          "key": "d",
          "valid": true,
          "mode": "grid",
          "direction": "地铁(D)·下",
          "dir_code": "down",
          "to_code": 9,
          "rt_ms": 351
        },
        {
          "step": 36,
          "from_code": 9,
          "key": "d",
          "valid": false,
          "to_code": null,
          "rt_ms": 468,
          "mode": "grid",
          "direction": "地铁(D)·下",
          "dir_code": "down"
        },
        {
          "step": 36,
          "from_code": 9,
          "key": "a",
          "valid": true,
          "mode": "grid",
          "direction": "地铁(A)·上",
          "dir_code": "up",
          "to_code": 6,
          "rt_ms": 373
        },
        {
          "step": 37,
          "from_code": 6,
          "key": "a",
          "valid": true,
          "mode": "grid",
          "direction": "地铁(A)·上",
          "dir_code": "up",
          "to_code": 3,
          "rt_ms": 212
        },
        {
          "step": 38,
          "from_code": 3,
          "key": "e",
          "valid": false,
          "to_code": null,
          "rt_ms": 244,
          "mode": "grid",
          "direction": "公交(E)·右",
          "dir_code": "right"
        },
        {
          "step": 38,
          "from_code": 3,
          "key": "q",
          "valid": true,
          "mode": "grid",
          "direction": "公交(Q)·左",
          "dir_code": "left",
          "to_code": 2,
          "rt_ms": 393
        },
        {
          "step": 39,
          "from_code": 2,
          "key": "q",
          "valid": true,
          "mode": "grid",
          "direction": "公交(Q)·左",
          "dir_code": "left",
          "to_code": 1,
          "rt_ms": 229
        },
        {
          "step": 40,
          "from_code": 1,
          "key": "d",
          "valid": true,
          "mode": "grid",
          "direction": "地铁(D)·下",
          "dir_code": "down",
          "to_code": 4,
          "rt_ms": 862
        },
        {
          "step": 41,
          "from_code": 4,
          "key": "a",
          "valid": true,
          "mode": "grid",
          "direction": "地铁(A)·上",
          "dir_code": "up",
          "to_code": 1,
          "rt_ms": 502
        },
        {
          "step": 42,
          "from_code": 1,
          "key": "w",
          "valid": true,
          "mode": "grid",
          "direction": "快速巴士(W)·角点顺时针",
          "dir_code": "cw",
          "to_code": 3,
          "rt_ms": 1755
        },
        {
          "step": 43,
          "from_code": 3,
          "key": "w",
          "valid": true,
          "mode": "grid",
          "direction": "快速巴士(W)·角点顺时针",
          "dir_code": "cw",
          "to_code": 9,
          "rt_ms": 419
        },
        {
          "step": 44,
          "from_code": 9,
          "key": "w",
          "valid": true,
          "mode": "grid",
          "direction": "快速巴士(W)·角点顺时针",
          "dir_code": "cw",
          "to_code": 7,
          "rt_ms": 363
        },
        {
          "step": 45,
          "from_code": 7,
          "key": "w",
          "valid": true,
          "mode": "grid",
          "direction": "快速巴士(W)·角点顺时针",
          "dir_code": "cw",
          "to_code": 1,
          "rt_ms": 1080
        },
        {
          "step": 46,
          "from_code": 1,
          "key": "a",
          "valid": false,
          "to_code": null,
          "rt_ms": 7006,
          "mode": "grid",
          "direction": "地铁(A)·上",
          "dir_code": "up"
        },
        {
          "step": 46,
          "from_code": 1,
          "key": "d",
          "valid": true,
          "mode": "grid",
          "direction": "地铁(D)·下",
          "dir_code": "down",
          "to_code": 4,
          "rt_ms": 703
        },
        {
          "step": 47,
          "from_code": 4,
          "key": "d",
          "valid": true,
          "mode": "grid",
          "direction": "地铁(D)·下",
          "dir_code": "down",
          "to_code": 7,
          "rt_ms": 1218
        },
        {
          "step": 48,
          "from_code": 7,
          "key": "a",
          "valid": true,
          "mode": "grid",
          "direction": "地铁(A)·上",
          "dir_code": "up",
          "to_code": 4,
          "rt_ms": 705
        },
        {
          "step": 49,
          "from_code": 4,
          "key": "a",
          "valid": true,
          "mode": "grid",
          "direction": "地铁(A)·上",
          "dir_code": "up",
          "to_code": 1,
          "rt_ms": 198
        },
        {
          "step": 50,
          "from_code": 1,
          "key": "d",
          "valid": true,
          "mode": "grid",
          "direction": "地铁(D)·下",
          "dir_code": "down",
          "to_code": 4,
          "rt_ms": 1672
        },
        {
          "step": 51,
          "from_code": 4,
          "key": "d",
          "valid": true,
          "mode": "grid",
          "direction": "地铁(D)·下",
          "dir_code": "down",
          "to_code": 7,
          "rt_ms": 419
        },
        {
          "step": 52,
          "from_code": 7,
          "key": "a",
          "valid": true,
          "mode": "grid",
          "direction": "地铁(A)·上",
          "dir_code": "up",
          "to_code": 4,
          "rt_ms": 426
        },
        {
          "step": 53,
          "from_code": 4,
          "key": "a",
          "valid": true,
          "mode": "grid",
          "direction": "地铁(A)·上",
          "dir_code": "up",
          "to_code": 1,
          "rt_ms": 212
        },
        {
          "step": 54,
          "from_code": 1,
          "key": "d",
          "valid": true,
          "mode": "grid",
          "direction": "地铁(D)·下",
          "dir_code": "down",
          "to_code": 4,
          "rt_ms": 3469
        },
        {
          "step": 55,
          "from_code": 4,
          "key": "d",
          "valid": true,
          "mode": "grid",
          "direction": "地铁(D)·下",
          "dir_code": "down",
          "to_code": 7,
          "rt_ms": 617
        },
        {
          "step": 56,
          "from_code": 7,
          "key": "a",
          "valid": true,
          "mode": "grid",
          "direction": "地铁(A)·上",
          "dir_code": "up",
          "to_code": 4,
          "rt_ms": 537
        },
        {
          "step": 57,
          "from_code": 4,
          "key": "a",
          "valid": true,
          "mode": "grid",
          "direction": "地铁(A)·上",
          "dir_code": "up",
          "to_code": 1,
          "rt_ms": 244
        },
        {
          "step": 58,
          "from_code": 1,
          "key": "d",
          "valid": true,
          "mode": "grid",
          "direction": "地铁(D)·下",
          "dir_code": "down",
          "to_code": 4,
          "rt_ms": 439
        },
        {
          "step": 59,
          "from_code": 4,
          "key": "d",
          "valid": true,
          "mode": "grid",
          "direction": "地铁(D)·下",
          "dir_code": "down",
          "to_code": 7,
          "rt_ms": 170
        },
        {
          "step": 60,
          "from_code": 7,
          "key": "a",
          "valid": true,
          "mode": "grid",
          "direction": "地铁(A)·上",
          "dir_code": "up",
          "to_code": 4,
          "rt_ms": 841
        },
        {
          "step": 61,
          "from_code": 4,
          "key": "a",
          "valid": true,
          "mode": "grid",
          "direction": "地铁(A)·上",
          "dir_code": "up",
          "to_code": 1,
          "rt_ms": 535
        },
        {
          "step": 62,
          "from_code": 1,
          "key": "e",
          "valid": true,
          "mode": "grid",
          "direction": "公交(E)·右",
          "dir_code": "right",
          "to_code": 2,
          "rt_ms": 7403
        },
        {
          "step": 63,
          "from_code": 2,
          "key": "e",
          "valid": true,
          "mode": "grid",
          "direction": "公交(E)·右",
          "dir_code": "right",
          "to_code": 3,
          "rt_ms": 2728
        },
        {
          "step": 64,
          "from_code": 3,
          "key": "w",
          "valid": true,
          "mode": "grid",
          "direction": "快速巴士(W)·角点顺时针",
          "dir_code": "cw",
          "to_code": 9,
          "rt_ms": 2849
        },
        {
          "step": 65,
          "from_code": 9,
          "key": "w",
          "valid": true,
          "mode": "grid",
          "direction": "快速巴士(W)·角点顺时针",
          "dir_code": "cw",
          "to_code": 7,
          "rt_ms": 885
        },
        {
          "step": 66,
          "from_code": 7,
          "key": "w",
          "valid": true,
          "mode": "grid",
          "direction": "快速巴士(W)·角点顺时针",
          "dir_code": "cw",
          "to_code": 1,
          "rt_ms": 384
        },
        {
          "step": 67,
          "from_code": 1,
          "key": "e",
          "valid": true,
          "mode": "grid",
          "direction": "公交(E)·右",
          "dir_code": "right",
          "to_code": 2,
          "rt_ms": 5826
        },
        {
          "step": 68,
          "from_code": 2,
          "key": "e",
          "valid": true,
          "mode": "grid",
          "direction": "公交(E)·右",
          "dir_code": "right",
          "to_code": 3,
          "rt_ms": 720
        },
        {
          "step": 69,
          "from_code": 3,
          "key": "q",
          "valid": true,
          "mode": "grid",
          "direction": "公交(Q)·左",
          "dir_code": "left",
          "to_code": 2,
          "rt_ms": 807
        },
        {
          "step": 70,
          "from_code": 2,
          "key": "q",
          "valid": true,
          "mode": "grid",
          "direction": "公交(Q)·左",
          "dir_code": "left",
          "to_code": 1,
          "rt_ms": 296
        },
        {
          "step": 71,
          "from_code": 1,
          "key": "d",
          "valid": true,
          "mode": "grid",
          "direction": "地铁(D)·下",
          "dir_code": "down",
          "to_code": 4,
          "rt_ms": 6726
        },
        {
          "step": 72,
          "from_code": 4,
          "key": "a",
          "valid": true,
          "mode": "grid",
          "direction": "地铁(A)·上",
          "dir_code": "up",
          "to_code": 1,
          "rt_ms": 771
        },
        {
          "step": 73,
          "from_code": 1,
          "key": "q",
          "valid": false,
          "to_code": null,
          "rt_ms": 1291,
          "mode": "grid",
          "direction": "公交(Q)·左",
          "dir_code": "left"
        },
        {
          "step": 73,
          "from_code": 1,
          "key": "d",
          "valid": true,
          "mode": "grid",
          "direction": "地铁(D)·下",
          "dir_code": "down",
          "to_code": 4,
          "rt_ms": 1287
        },
        {
          "step": 74,
          "from_code": 4,
          "key": "a",
          "valid": true,
          "mode": "grid",
          "direction": "地铁(A)·上",
          "dir_code": "up",
          "to_code": 1,
          "rt_ms": 217
        },
        {
          "step": 75,
          "from_code": 1,
          "key": "e",
          "valid": true,
          "mode": "grid",
          "direction": "公交(E)·右",
          "dir_code": "right",
          "to_code": 2,
          "rt_ms": 1109
        },
        {
          "step": 76,
          "from_code": 2,
          "key": "w",
          "valid": false,
          "to_code": null,
          "rt_ms": 729,
          "mode": "grid",
          "direction": "快速巴士(W)·角点顺时针",
          "dir_code": "cw"
        },
        {
          "step": 76,
          "from_code": 2,
          "key": "a",
          "valid": false,
          "to_code": null,
          "rt_ms": 408,
          "mode": "grid",
          "direction": "地铁(A)·上",
          "dir_code": "up"
        },
        {
          "step": 76,
          "from_code": 2,
          "key": "w",
          "valid": false,
          "to_code": null,
          "rt_ms": 1061,
          "mode": "grid",
          "direction": "快速巴士(W)·角点顺时针",
          "dir_code": "cw"
        },
        {
          "step": 76,
          "from_code": 2,
          "key": "a",
          "valid": false,
          "to_code": null,
          "rt_ms": 257,
          "mode": "grid",
          "direction": "地铁(A)·上",
          "dir_code": "up"
        },
        {
          "step": 76,
          "from_code": 2,
          "key": "d",
          "valid": true,
          "mode": "grid",
          "direction": "地铁(D)·下",
          "dir_code": "down",
          "to_code": 5,
          "rt_ms": 272
        },
        {
          "step": 77,
          "from_code": 5,
          "key": "a",
          "valid": true,
          "mode": "grid",
          "direction": "地铁(A)·上",
          "dir_code": "up",
          "to_code": 2,
          "rt_ms": 1001
        },
        {
          "step": 78,
          "from_code": 2,
          "key": "d",
          "valid": true,
          "mode": "grid",
          "direction": "地铁(D)·下",
          "dir_code": "down",
          "to_code": 5,
          "rt_ms": 505
        },
        {
          "step": 79,
          "from_code": 5,
          "key": "d",
          "valid": true,
          "mode": "grid",
          "direction": "地铁(D)·下",
          "dir_code": "down",
          "to_code": 8,
          "rt_ms": 769
        },
        {
          "step": 80,
          "from_code": 8,
          "key": "a",
          "valid": true,
          "mode": "grid",
          "direction": "地铁(A)·上",
          "dir_code": "up",
          "to_code": 5,
          "rt_ms": 943
        },
        {
          "step": 81,
          "from_code": 5,
          "key": "a",
          "valid": true,
          "mode": "grid",
          "direction": "地铁(A)·上",
          "dir_code": "up",
          "to_code": 2,
          "rt_ms": 381
        },
        {
          "step": 82,
          "from_code": 2,
          "key": "d",
          "valid": true,
          "mode": "grid",
          "direction": "地铁(D)·下",
          "dir_code": "down",
          "to_code": 5,
          "rt_ms": 3351
        },
        {
          "step": 83,
          "from_code": 5,
          "key": "a",
          "valid": true,
          "mode": "grid",
          "direction": "地铁(A)·上",
          "dir_code": "up",
          "to_code": 2,
          "rt_ms": 470
        },
        {
          "step": 84,
          "from_code": 2,
          "key": "d",
          "valid": true,
          "mode": "grid",
          "direction": "地铁(D)·下",
          "dir_code": "down",
          "to_code": 5,
          "rt_ms": 1745
        },
        {
          "step": 85,
          "from_code": 5,
          "key": "d",
          "valid": true,
          "mode": "grid",
          "direction": "地铁(D)·下",
          "dir_code": "down",
          "to_code": 8,
          "rt_ms": 231
        },
        {
          "step": 86,
          "from_code": 8,
          "key": "d",
          "valid": false,
          "to_code": null,
          "rt_ms": 317,
          "mode": "grid",
          "direction": "地铁(D)·下",
          "dir_code": "down"
        },
        {
          "step": 86,
          "from_code": 8,
          "key": "a",
          "valid": true,
          "mode": "grid",
          "direction": "地铁(A)·上",
          "dir_code": "up",
          "to_code": 5,
          "rt_ms": 802
        },
        {
          "step": 87,
          "from_code": 5,
          "key": "a",
          "valid": true,
          "mode": "grid",
          "direction": "地铁(A)·上",
          "dir_code": "up",
          "to_code": 2,
          "rt_ms": 292
        },
        {
          "step": 88,
          "from_code": 2,
          "key": "e",
          "valid": true,
          "mode": "grid",
          "direction": "公交(E)·右",
          "dir_code": "right",
          "to_code": 3,
          "rt_ms": 1479
        },
        {
          "step": 89,
          "from_code": 3,
          "key": "q",
          "valid": true,
          "mode": "grid",
          "direction": "公交(Q)·左",
          "dir_code": "left",
          "to_code": 2,
          "rt_ms": 686
        },
        {
          "step": 90,
          "from_code": 2,
          "key": "a",
          "valid": false,
          "to_code": null,
          "rt_ms": 751,
          "mode": "grid",
          "direction": "地铁(A)·上",
          "dir_code": "up"
        },
        {
          "step": 90,
          "from_code": 2,
          "key": "d",
          "valid": true,
          "mode": "grid",
          "direction": "地铁(D)·下",
          "dir_code": "down",
          "to_code": 5,
          "rt_ms": 379
        }
      ],
      "min_seconds": 180,
      "min_visits_per_node": 2,
      "trial_index": null,
      "trial_progress": null,
      "trial_id": "exploration",
      "start_code": 1,
      "goal_code": null,
      "goal_codes": [],
      "total_steps": 104,
      "outcome": "success",
      "total_time_ms": 180014
    },
    "screen_id": "mix_nav_practice_block",
    "trial_type": "call-function",
    "trial_index": 1,
    "time_elapsed": 191182,
    "internal_node_id": "0.0-1.0",
    "participant_id": "005",
    "experiment_order": "navigation-first"
  },
  {
    "rt": 2904,
    "stimulus": "<div class='nc-inst'><h2>正式实验</h2><div class='nc-inst-tag'>Session 1 · 导航</div><figure class='nc-inst-figure' aria-label='导航正式实验界面示意图'><img src='materials/intro_navigation2.png' alt='导航正式实验界面：目标站点、当前站点与交通工具及对应按键' loading='eager' decoding='async' /></figure><p>请依照<strong>您所学习的城市交通路线</strong>，通过使用不同的交通工具，<strong>从起始站点抵达提示的目标站点</strong>。</p><p>键位与练习一致。</p><p>完成当前试次后根据屏幕提示继续下一试次。</p><p>本阶段共 <strong>20</strong> 个试次。</p><p class='nc-inst-hint'>按 <strong>空格</strong> 开始正式实验。</p></div>",
    "response": " ",
    "screen_id": "mix_session_guidance",
    "mix_session": 1,
    "mix_domain": "navigation",
    "experiment_order": "navigation-first",
    "trial_type": "html-keyboard-response",
    "trial_index": 2,
    "time_elapsed": 194088,
    "internal_node_id": "0.0-2.0",
    "participant_id": "005"
  },
  {
    "value": {
      "phase": "main",
      "domain": "navigation",
      "trial_index": 1,
      "trial_progress": {
        "current": 1,
        "total": 20
      },
      "trial_id": "nav_1",
      "start_code": 6,
      "goal_code": 7,
      "goal_codes": [
        7
      ],
      "steps": [
        {
          "step": 1,
          "from_code": 6,
          "key": "d",
          "valid": true,
          "mode": "grid",
          "direction": "地铁(D)·下",
          "dir_code": "down",
          "to_code": 9,
          "rt_ms": 7171
        },
        {
          "step": 2,
          "from_code": 9,
          "key": "w",
          "valid": true,
          "mode": "grid",
          "direction": "快速巴士(W)·角点顺时针",
          "dir_code": "cw",
          "to_code": 7,
          "rt_ms": 6142
        }
      ],
      "total_steps": 2,
      "outcome": "success",
      "total_time_ms": 16657
    },
    "screen_id": "mix_navigation_trial",
    "phase": "main",
    "mix_session": 1,
    "mix_session_domain": "navigation",
    "mix_step_index": 1,
    "mix_step_total": 20,
    "experiment_order": "navigation-first",
    "pair_id": "L07",
    "category": "loop",
    "trial_id": "nav_1",
    "start_code": 6,
    "goal_code": 7,
    "goal_codes": [
      7
    ],
    "trial_type": "call-function",
    "trial_index": 3,
    "time_elapsed": 210746,
    "internal_node_id": "0.0-3.0",
    "participant_id": "005"
  },
  {
    "value": {
      "phase": "main",
      "domain": "navigation",
      "trial_index": 2,
      "trial_progress": {
        "current": 2,
        "total": 20
      },
      "trial_id": "nav_2",
      "start_code": 2,
      "goal_code": 6,
      "goal_codes": [
        6
      ],
      "steps": [
        {
          "step": 1,
          "from_code": 2,
          "key": "w",
          "valid": false,
          "to_code": null,
          "rt_ms": 3878,
          "mode": "grid",
          "direction": "快速巴士(W)·角点顺时针",
          "dir_code": "cw"
        },
        {
          "step": 1,
          "from_code": 2,
          "key": "e",
          "valid": true,
          "mode": "grid",
          "direction": "公交(E)·右",
          "dir_code": "right",
          "to_code": 3,
          "rt_ms": 13769
        },
        {
          "step": 2,
          "from_code": 3,
          "key": "a",
          "valid": false,
          "to_code": null,
          "rt_ms": 4644,
          "mode": "grid",
          "direction": "地铁(A)·上",
          "dir_code": "up"
        },
        {
          "step": 2,
          "from_code": 3,
          "key": "d",
          "valid": true,
          "mode": "grid",
          "direction": "地铁(D)·下",
          "dir_code": "down",
          "to_code": 6,
          "rt_ms": 376
        }
      ],
      "total_steps": 2,
      "outcome": "success",
      "total_time_ms": 24171
    },
    "screen_id": "mix_navigation_trial",
    "phase": "main",
    "mix_session": 1,
    "mix_session_domain": "navigation",
    "mix_step_index": 2,
    "mix_step_total": 20,
    "experiment_order": "navigation-first",
    "pair_id": "G02",
    "category": "grid",
    "trial_id": "nav_2",
    "start_code": 2,
    "goal_code": 6,
    "goal_codes": [
      6
    ],
    "trial_type": "call-function",
    "trial_index": 4,
    "time_elapsed": 234922,
    "internal_node_id": "0.0-4.0",
    "participant_id": "005"
  },
  {
    "value": {
      "phase": "main",
      "domain": "navigation",
      "trial_index": 3,
      "trial_progress": {
        "current": 3,
        "total": 20
      },
      "trial_id": "nav_3",
      "start_code": 2,
      "goal_code": 9,
      "goal_codes": [
        9
      ],
      "steps": [
        {
          "step": 1,
          "from_code": 2,
          "key": "e",
          "valid": true,
          "mode": "grid",
          "direction": "公交(E)·右",
          "dir_code": "right",
          "to_code": 3,
          "rt_ms": 22785
        },
        {
          "step": 2,
          "from_code": 3,
          "key": "w",
          "valid": true,
          "mode": "grid",
          "direction": "快速巴士(W)·角点顺时针",
          "dir_code": "cw",
          "to_code": 9,
          "rt_ms": 4942
        }
      ],
      "total_steps": 2,
      "outcome": "success",
      "total_time_ms": 31672
    },
    "screen_id": "mix_navigation_trial",
    "phase": "main",
    "mix_session": 1,
    "mix_session_domain": "navigation",
    "mix_step_index": 3,
    "mix_step_total": 20,
    "experiment_order": "navigation-first",
    "pair_id": "L03",
    "category": "loop",
    "trial_id": "nav_3",
    "start_code": 2,
    "goal_code": 9,
    "goal_codes": [
      9
    ],
    "trial_type": "call-function",
    "trial_index": 5,
    "time_elapsed": 266594,
    "internal_node_id": "0.0-5.0",
    "participant_id": "005"
  },
  {
    "value": {
      "phase": "main",
      "domain": "navigation",
      "trial_index": 4,
      "trial_progress": {
        "current": 4,
        "total": 20
      },
      "trial_id": "nav_4",
      "start_code": 1,
      "goal_code": 6,
      "goal_codes": [
        6
      ],
      "steps": [
        {
          "step": 1,
          "from_code": 1,
          "key": "e",
          "valid": true,
          "mode": "grid",
          "direction": "公交(E)·右",
          "dir_code": "right",
          "to_code": 2,
          "rt_ms": 31122
        },
        {
          "step": 2,
          "from_code": 2,
          "key": "e",
          "valid": true,
          "mode": "grid",
          "direction": "公交(E)·右",
          "dir_code": "right",
          "to_code": 3,
          "rt_ms": 18245
        },
        {
          "step": 3,
          "from_code": 3,
          "key": "q",
          "valid": true,
          "mode": "grid",
          "direction": "公交(Q)·左",
          "dir_code": "left",
          "to_code": 2,
          "rt_ms": 4428
        },
        {
          "step": 4,
          "from_code": 2,
          "key": "e",
          "valid": true,
          "mode": "grid",
          "direction": "公交(E)·右",
          "dir_code": "right",
          "to_code": 3,
          "rt_ms": 1196
        },
        {
          "step": 5,
          "from_code": 3,
          "key": "a",
          "valid": false,
          "to_code": null,
          "rt_ms": 993,
          "mode": "grid",
          "direction": "地铁(A)·上",
          "dir_code": "up"
        },
        {
          "step": 5,
          "from_code": 3,
          "key": "d",
          "valid": true,
          "mode": "grid",
          "direction": "地铁(D)·下",
          "dir_code": "down",
          "to_code": 6,
          "rt_ms": 428
        }
      ],
      "total_steps": 5,
      "outcome": "success",
      "total_time_ms": 63202
    },
    "screen_id": "mix_navigation_trial",
    "phase": "main",
    "mix_session": 1,
    "mix_session_domain": "navigation",
    "mix_step_index": 4,
    "mix_step_total": 20,
    "experiment_order": "navigation-first",
    "pair_id": "L01",
    "category": "loop",
    "trial_id": "nav_4",
    "start_code": 1,
    "goal_code": 6,
    "goal_codes": [
      6
    ],
    "trial_type": "call-function",
    "trial_index": 6,
    "time_elapsed": 329800,
    "internal_node_id": "0.0-6.0",
    "participant_id": "005"
  },
  {
    "value": {
      "phase": "main",
      "domain": "navigation",
      "trial_index": 5,
      "trial_progress": {
        "current": 5,
        "total": 20
      },
      "trial_id": "nav_5",
      "start_code": 4,
      "goal_code": 3,
      "goal_codes": [
        3
      ],
      "steps": [
        {
          "step": 1,
          "from_code": 4,
          "key": "d",
          "valid": true,
          "mode": "grid",
          "direction": "地铁(D)·下",
          "dir_code": "down",
          "to_code": 7,
          "rt_ms": 23236
        },
        {
          "step": 2,
          "from_code": 7,
          "key": "a",
          "valid": true,
          "mode": "grid",
          "direction": "地铁(A)·上",
          "dir_code": "up",
          "to_code": 4,
          "rt_ms": 609
        },
        {
          "step": 3,
          "from_code": 4,
          "key": "a",
          "valid": true,
          "mode": "grid",
          "direction": "地铁(A)·上",
          "dir_code": "up",
          "to_code": 1,
          "rt_ms": 251
        },
        {
          "step": 4,
          "from_code": 1,
          "key": "w",
          "valid": true,
          "mode": "grid",
          "direction": "快速巴士(W)·角点顺时针",
          "dir_code": "cw",
          "to_code": 3,
          "rt_ms": 2694
        }
      ],
      "total_steps": 4,
      "outcome": "success",
      "total_time_ms": 28797
    },
    "screen_id": "mix_navigation_trial",
    "phase": "main",
    "mix_session": 1,
    "mix_session_domain": "navigation",
    "mix_step_index": 5,
    "mix_step_total": 20,
    "experiment_order": "navigation-first",
    "pair_id": "L06",
    "category": "loop",
    "trial_id": "nav_5",
    "start_code": 4,
    "goal_code": 3,
    "goal_codes": [
      3
    ],
    "trial_type": "call-function",
    "trial_index": 7,
    "time_elapsed": 358602,
    "internal_node_id": "0.0-7.0",
    "participant_id": "005"
  },
  {
    "value": {
      "phase": "main",
      "domain": "navigation",
      "trial_index": 6,
      "trial_progress": {
        "current": 6,
        "total": 20
      },
      "trial_id": "nav_6",
      "start_code": 9,
      "goal_code": 3,
      "goal_codes": [
        3
      ],
      "steps": [
        {
          "step": 1,
          "from_code": 9,
          "key": "d",
          "valid": false,
          "to_code": null,
          "rt_ms": 5342,
          "mode": "grid",
          "direction": "地铁(D)·下",
          "dir_code": "down"
        },
        {
          "step": 1,
          "from_code": 9,
          "key": "e",
          "valid": false,
          "to_code": null,
          "rt_ms": 815,
          "mode": "grid",
          "direction": "公交(E)·右",
          "dir_code": "right"
        },
        {
          "step": 1,
          "from_code": 9,
          "key": "w",
          "valid": true,
          "mode": "grid",
          "direction": "快速巴士(W)·角点顺时针",
          "dir_code": "cw",
          "to_code": 7,
          "rt_ms": 620
        },
        {
          "step": 2,
          "from_code": 7,
          "key": "e",
          "valid": true,
          "mode": "grid",
          "direction": "公交(E)·右",
          "dir_code": "right",
          "to_code": 8,
          "rt_ms": 728
        },
        {
          "step": 3,
          "from_code": 8,
          "key": "e",
          "valid": true,
          "mode": "grid",
          "direction": "公交(E)·右",
          "dir_code": "right",
          "to_code": 9,
          "rt_ms": 3757
        },
        {
          "step": 4,
          "from_code": 9,
          "key": "q",
          "valid": true,
          "mode": "grid",
          "direction": "公交(Q)·左",
          "dir_code": "left",
          "to_code": 8,
          "rt_ms": 1036
        },
        {
          "step": 5,
          "from_code": 8,
          "key": "q",
          "valid": true,
          "mode": "grid",
          "direction": "公交(Q)·左",
          "dir_code": "left",
          "to_code": 7,
          "rt_ms": 454
        },
        {
          "step": 6,
          "from_code": 7,
          "key": "d",
          "valid": false,
          "to_code": null,
          "rt_ms": 751,
          "mode": "grid",
          "direction": "地铁(D)·下",
          "dir_code": "down"
        },
        {
          "step": 6,
          "from_code": 7,
          "key": "w",
          "valid": true,
          "mode": "grid",
          "direction": "快速巴士(W)·角点顺时针",
          "dir_code": "cw",
          "to_code": 1,
          "rt_ms": 962
        },
        {
          "step": 7,
          "from_code": 1,
          "key": "w",
          "valid": true,
          "mode": "grid",
          "direction": "快速巴士(W)·角点顺时针",
          "dir_code": "cw",
          "to_code": 3,
          "rt_ms": 1340
        }
      ],
      "total_steps": 7,
      "outcome": "success",
      "total_time_ms": 18758
    },
    "screen_id": "mix_navigation_trial",
    "phase": "main",
    "mix_session": 1,
    "mix_session_domain": "navigation",
    "mix_step_index": 6,
    "mix_step_total": 20,
    "experiment_order": "navigation-first",
    "pair_id": "G11",
    "category": "grid",
    "trial_id": "nav_6",
    "start_code": 9,
    "goal_code": 3,
    "goal_codes": [
      3
    ],
    "trial_type": "call-function",
    "trial_index": 8,
    "time_elapsed": 377360,
    "internal_node_id": "0.0-8.0",
    "participant_id": "005"
  },
  {
    "value": {
      "phase": "main",
      "domain": "navigation",
      "trial_index": 7,
      "trial_progress": {
        "current": 7,
        "total": 20
      },
      "trial_id": "nav_7",
      "start_code": 2,
      "goal_code": 6,
      "goal_codes": [
        6
      ],
      "steps": [
        {
          "step": 1,
          "from_code": 2,
          "key": "a",
          "valid": false,
          "to_code": null,
          "rt_ms": 2320,
          "mode": "grid",
          "direction": "地铁(A)·上",
          "dir_code": "up"
        },
        {
          "step": 1,
          "from_code": 2,
          "key": "d",
          "valid": true,
          "mode": "grid",
          "direction": "地铁(D)·下",
          "dir_code": "down",
          "to_code": 5,
          "rt_ms": 625
        },
        {
          "step": 2,
          "from_code": 5,
          "key": "d",
          "valid": true,
          "mode": "grid",
          "direction": "地铁(D)·下",
          "dir_code": "down",
          "to_code": 8,
          "rt_ms": 1043
        },
        {
          "step": 3,
          "from_code": 8,
          "key": "a",
          "valid": true,
          "mode": "grid",
          "direction": "地铁(A)·上",
          "dir_code": "up",
          "to_code": 5,
          "rt_ms": 562
        },
        {
          "step": 4,
          "from_code": 5,
          "key": "a",
          "valid": true,
          "mode": "grid",
          "direction": "地铁(A)·上",
          "dir_code": "up",
          "to_code": 2,
          "rt_ms": 376
        },
        {
          "step": 5,
          "from_code": 2,
          "key": "e",
          "valid": true,
          "mode": "grid",
          "direction": "公交(E)·右",
          "dir_code": "right",
          "to_code": 3,
          "rt_ms": 1210
        },
        {
          "step": 6,
          "from_code": 3,
          "key": "w",
          "valid": true,
          "mode": "grid",
          "direction": "快速巴士(W)·角点顺时针",
          "dir_code": "cw",
          "to_code": 9,
          "rt_ms": 1013
        },
        {
          "step": 7,
          "from_code": 9,
          "key": "w",
          "valid": true,
          "mode": "grid",
          "direction": "快速巴士(W)·角点顺时针",
          "dir_code": "cw",
          "to_code": 7,
          "rt_ms": 1834
        },
        {
          "step": 8,
          "from_code": 7,
          "key": "d",
          "valid": false,
          "to_code": null,
          "rt_ms": 574,
          "mode": "grid",
          "direction": "地铁(D)·下",
          "dir_code": "down"
        },
        {
          "step": 8,
          "from_code": 7,
          "key": "e",
          "valid": true,
          "mode": "grid",
          "direction": "公交(E)·右",
          "dir_code": "right",
          "to_code": 8,
          "rt_ms": 1305
        },
        {
          "step": 9,
          "from_code": 8,
          "key": "q",
          "valid": true,
          "mode": "grid",
          "direction": "公交(Q)·左",
          "dir_code": "left",
          "to_code": 7,
          "rt_ms": 1948
        },
        {
          "step": 10,
          "from_code": 7,
          "key": "e",
          "valid": true,
          "mode": "grid",
          "direction": "公交(E)·右",
          "dir_code": "right",
          "to_code": 8,
          "rt_ms": 1027
        },
        {
          "step": 11,
          "from_code": 8,
          "key": "e",
          "valid": true,
          "mode": "grid",
          "direction": "公交(E)·右",
          "dir_code": "right",
          "to_code": 9,
          "rt_ms": 129
        },
        {
          "step": 12,
          "from_code": 9,
          "key": "q",
          "valid": true,
          "mode": "grid",
          "direction": "公交(Q)·左",
          "dir_code": "left",
          "to_code": 8,
          "rt_ms": 447
        },
        {
          "step": 13,
          "from_code": 8,
          "key": "d",
          "valid": false,
          "to_code": null,
          "rt_ms": 552,
          "mode": "grid",
          "direction": "地铁(D)·下",
          "dir_code": "down"
        },
        {
          "step": 13,
          "from_code": 8,
          "key": "w",
          "valid": false,
          "to_code": null,
          "rt_ms": 724,
          "mode": "grid",
          "direction": "快速巴士(W)·角点顺时针",
          "dir_code": "cw"
        },
        {
          "step": 13,
          "from_code": 8,
          "key": "d",
          "valid": false,
          "to_code": null,
          "rt_ms": 631,
          "mode": "grid",
          "direction": "地铁(D)·下",
          "dir_code": "down"
        },
        {
          "step": 13,
          "from_code": 8,
          "key": "a",
          "valid": true,
          "mode": "grid",
          "direction": "地铁(A)·上",
          "dir_code": "up",
          "to_code": 5,
          "rt_ms": 468
        },
        {
          "step": 14,
          "from_code": 5,
          "key": "a",
          "valid": true,
          "mode": "grid",
          "direction": "地铁(A)·上",
          "dir_code": "up",
          "to_code": 2,
          "rt_ms": 620
        },
        {
          "step": 15,
          "from_code": 2,
          "key": "e",
          "valid": true,
          "mode": "grid",
          "direction": "公交(E)·右",
          "dir_code": "right",
          "to_code": 3,
          "rt_ms": 800
        },
        {
          "step": 16,
          "from_code": 3,
          "key": "w",
          "valid": true,
          "mode": "grid",
          "direction": "快速巴士(W)·角点顺时针",
          "dir_code": "cw",
          "to_code": 9,
          "rt_ms": 630
        },
        {
          "step": 17,
          "from_code": 9,
          "key": "q",
          "valid": true,
          "mode": "grid",
          "direction": "公交(Q)·左",
          "dir_code": "left",
          "to_code": 8,
          "rt_ms": 1460
        },
        {
          "step": 18,
          "from_code": 8,
          "key": "q",
          "valid": true,
          "mode": "grid",
          "direction": "公交(Q)·左",
          "dir_code": "left",
          "to_code": 7,
          "rt_ms": 503
        },
        {
          "step": 19,
          "from_code": 7,
          "key": "e",
          "valid": true,
          "mode": "grid",
          "direction": "公交(E)·右",
          "dir_code": "right",
          "to_code": 8,
          "rt_ms": 626
        },
        {
          "step": 20,
          "from_code": 8,
          "key": "e",
          "valid": true,
          "mode": "grid",
          "direction": "公交(E)·右",
          "dir_code": "right",
          "to_code": 9,
          "rt_ms": 432
        },
        {
          "step": 21,
          "from_code": 9,
          "key": "e",
          "valid": false,
          "to_code": null,
          "rt_ms": 379,
          "mode": "grid",
          "direction": "公交(E)·右",
          "dir_code": "right"
        },
        {
          "step": 21,
          "from_code": 9,
          "key": "q",
          "valid": true,
          "mode": "grid",
          "direction": "公交(Q)·左",
          "dir_code": "left",
          "to_code": 8,
          "rt_ms": 266
        },
        {
          "step": 22,
          "from_code": 8,
          "key": "q",
          "valid": true,
          "mode": "grid",
          "direction": "公交(Q)·左",
          "dir_code": "left",
          "to_code": 7,
          "rt_ms": 182
        },
        {
          "step": 23,
          "from_code": 7,
          "key": "d",
          "valid": false,
          "to_code": null,
          "rt_ms": 447,
          "mode": "grid",
          "direction": "地铁(D)·下",
          "dir_code": "down"
        },
        {
          "step": 23,
          "from_code": 7,
          "key": "w",
          "valid": true,
          "mode": "grid",
          "direction": "快速巴士(W)·角点顺时针",
          "dir_code": "cw",
          "to_code": 1,
          "rt_ms": 680
        },
        {
          "step": 24,
          "from_code": 1,
          "key": "q",
          "valid": false,
          "to_code": null,
          "rt_ms": 964,
          "mode": "grid",
          "direction": "公交(Q)·左",
          "dir_code": "left"
        },
        {
          "step": 24,
          "from_code": 1,
          "key": "e",
          "valid": true,
          "mode": "grid",
          "direction": "公交(E)·右",
          "dir_code": "right",
          "to_code": 2,
          "rt_ms": 550
        },
        {
          "step": 25,
          "from_code": 2,
          "key": "e",
          "valid": true,
          "mode": "grid",
          "direction": "公交(E)·右",
          "dir_code": "right",
          "to_code": 3,
          "rt_ms": 201
        },
        {
          "step": 26,
          "from_code": 3,
          "key": "w",
          "valid": true,
          "mode": "grid",
          "direction": "快速巴士(W)·角点顺时针",
          "dir_code": "cw",
          "to_code": 9,
          "rt_ms": 1271
        },
        {
          "step": 27,
          "from_code": 9,
          "key": "w",
          "valid": true,
          "mode": "grid",
          "direction": "快速巴士(W)·角点顺时针",
          "dir_code": "cw",
          "to_code": 7,
          "rt_ms": 3373
        },
        {
          "step": 28,
          "from_code": 7,
          "key": "w",
          "valid": true,
          "mode": "grid",
          "direction": "快速巴士(W)·角点顺时针",
          "dir_code": "cw",
          "to_code": 1,
          "rt_ms": 252
        },
        {
          "step": 29,
          "from_code": 1,
          "key": "w",
          "valid": true,
          "mode": "grid",
          "direction": "快速巴士(W)·角点顺时针",
          "dir_code": "cw",
          "to_code": 3,
          "rt_ms": 791
        },
        {
          "step": 30,
          "from_code": 3,
          "key": "w",
          "valid": true,
          "mode": "grid",
          "direction": "快速巴士(W)·角点顺时针",
          "dir_code": "cw",
          "to_code": 9,
          "rt_ms": 1345
        },
        {
          "step": 31,
          "from_code": 9,
          "key": "w",
          "valid": true,
          "mode": "grid",
          "direction": "快速巴士(W)·角点顺时针",
          "dir_code": "cw",
          "to_code": 7,
          "rt_ms": 559
        },
        {
          "step": 32,
          "from_code": 7,
          "key": "e",
          "valid": true,
          "mode": "grid",
          "direction": "公交(E)·右",
          "dir_code": "right",
          "to_code": 8,
          "rt_ms": 1123
        },
        {
          "step": 33,
          "from_code": 8,
          "key": "q",
          "valid": true,
          "mode": "grid",
          "direction": "公交(Q)·左",
          "dir_code": "left",
          "to_code": 7,
          "rt_ms": 2469
        },
        {
          "step": 34,
          "from_code": 7,
          "key": "e",
          "valid": true,
          "mode": "grid",
          "direction": "公交(E)·右",
          "dir_code": "right",
          "to_code": 8,
          "rt_ms": 1069
        },
        {
          "step": 35,
          "from_code": 8,
          "key": "w",
          "valid": false,
          "to_code": null,
          "rt_ms": 1214,
          "mode": "grid",
          "direction": "快速巴士(W)·角点顺时针",
          "dir_code": "cw"
        },
        {
          "step": 35,
          "from_code": 8,
          "key": "e",
          "valid": true,
          "mode": "grid",
          "direction": "公交(E)·右",
          "dir_code": "right",
          "to_code": 9,
          "rt_ms": 444
        },
        {
          "step": 36,
          "from_code": 9,
          "key": "w",
          "valid": true,
          "mode": "grid",
          "direction": "快速巴士(W)·角点顺时针",
          "dir_code": "cw",
          "to_code": 7,
          "rt_ms": 2780
        },
        {
          "step": 37,
          "from_code": 7,
          "key": "d",
          "valid": false,
          "to_code": null,
          "rt_ms": 999,
          "mode": "grid",
          "direction": "地铁(D)·下",
          "dir_code": "down"
        },
        {
          "step": 37,
          "from_code": 7,
          "key": "a",
          "valid": true,
          "mode": "grid",
          "direction": "地铁(A)·上",
          "dir_code": "up",
          "to_code": 4,
          "rt_ms": 442
        },
        {
          "step": 38,
          "from_code": 4,
          "key": "a",
          "valid": true,
          "mode": "grid",
          "direction": "地铁(A)·上",
          "dir_code": "up",
          "to_code": 1,
          "rt_ms": 883
        },
        {
          "step": 39,
          "from_code": 1,
          "key": "d",
          "valid": true,
          "mode": "grid",
          "direction": "地铁(D)·下",
          "dir_code": "down",
          "to_code": 4,
          "rt_ms": 771
        },
        {
          "step": 40,
          "from_code": 4,
          "key": "d",
          "valid": true,
          "mode": "grid",
          "direction": "地铁(D)·下",
          "dir_code": "down",
          "to_code": 7,
          "rt_ms": 722
        },
        {
          "step": 41,
          "from_code": 7,
          "key": "e",
          "valid": true,
          "mode": "grid",
          "direction": "公交(E)·右",
          "dir_code": "right",
          "to_code": 8,
          "rt_ms": 673
        },
        {
          "step": 42,
          "from_code": 8,
          "key": "e",
          "valid": true,
          "mode": "grid",
          "direction": "公交(E)·右",
          "dir_code": "right",
          "to_code": 9,
          "rt_ms": 442
        },
        {
          "step": 43,
          "from_code": 9,
          "key": "w",
          "valid": true,
          "mode": "grid",
          "direction": "快速巴士(W)·角点顺时针",
          "dir_code": "cw",
          "to_code": 7,
          "rt_ms": 547
        },
        {
          "step": 44,
          "from_code": 7,
          "key": "d",
          "valid": false,
          "to_code": null,
          "rt_ms": 894,
          "mode": "grid",
          "direction": "地铁(D)·下",
          "dir_code": "down"
        },
        {
          "step": 44,
          "from_code": 7,
          "key": "e",
          "valid": true,
          "mode": "grid",
          "direction": "公交(E)·右",
          "dir_code": "right",
          "to_code": 8,
          "rt_ms": 282
        },
        {
          "step": 45,
          "from_code": 8,
          "key": "e",
          "valid": true,
          "mode": "grid",
          "direction": "公交(E)·右",
          "dir_code": "right",
          "to_code": 9,
          "rt_ms": 1077
        },
        {
          "step": 46,
          "from_code": 9,
          "key": "w",
          "valid": true,
          "mode": "grid",
          "direction": "快速巴士(W)·角点顺时针",
          "dir_code": "cw",
          "to_code": 7,
          "rt_ms": 1431
        },
        {
          "step": 47,
          "from_code": 7,
          "key": "e",
          "valid": true,
          "mode": "grid",
          "direction": "公交(E)·右",
          "dir_code": "right",
          "to_code": 8,
          "rt_ms": 547
        },
        {
          "step": 48,
          "from_code": 8,
          "key": "q",
          "valid": true,
          "mode": "grid",
          "direction": "公交(Q)·左",
          "dir_code": "left",
          "to_code": 7,
          "rt_ms": 1297
        },
        {
          "step": 49,
          "from_code": 7,
          "key": "e",
          "valid": true,
          "mode": "grid",
          "direction": "公交(E)·右",
          "dir_code": "right",
          "to_code": 8,
          "rt_ms": 797
        },
        {
          "step": 50,
          "from_code": 8,
          "key": "d",
          "valid": false,
          "to_code": null,
          "rt_ms": 532,
          "mode": "grid",
          "direction": "地铁(D)·下",
          "dir_code": "down"
        },
        {
          "step": 50,
          "from_code": 8,
          "key": "a",
          "valid": true,
          "mode": "grid",
          "direction": "地铁(A)·上",
          "dir_code": "up",
          "to_code": 5,
          "rt_ms": 3789
        },
        {
          "step": 51,
          "from_code": 5,
          "key": "a",
          "valid": true,
          "mode": "grid",
          "direction": "地铁(A)·上",
          "dir_code": "up",
          "to_code": 2,
          "rt_ms": 867
        },
        {
          "step": 52,
          "from_code": 2,
          "key": "e",
          "valid": true,
          "mode": "grid",
          "direction": "公交(E)·右",
          "dir_code": "right",
          "to_code": 3,
          "rt_ms": 1761
        },
        {
          "step": 53,
          "from_code": 3,
          "key": "w",
          "valid": true,
          "mode": "grid",
          "direction": "快速巴士(W)·角点顺时针",
          "dir_code": "cw",
          "to_code": 9,
          "rt_ms": 680
        },
        {
          "step": 54,
          "from_code": 9,
          "key": "e",
          "valid": false,
          "to_code": null,
          "rt_ms": 558,
          "mode": "grid",
          "direction": "公交(E)·右",
          "dir_code": "right"
        },
        {
          "step": 54,
          "from_code": 9,
          "key": "q",
          "valid": true,
          "mode": "grid",
          "direction": "公交(Q)·左",
          "dir_code": "left",
          "to_code": 8,
          "rt_ms": 706
        },
        {
          "step": 55,
          "from_code": 8,
          "key": "q",
          "valid": true,
          "mode": "grid",
          "direction": "公交(Q)·左",
          "dir_code": "left",
          "to_code": 7,
          "rt_ms": 625
        },
        {
          "step": 56,
          "from_code": 7,
          "key": "e",
          "valid": true,
          "mode": "grid",
          "direction": "公交(E)·右",
          "dir_code": "right",
          "to_code": 8,
          "rt_ms": 476
        },
        {
          "step": 57,
          "from_code": 8,
          "key": "a",
          "valid": true,
          "mode": "grid",
          "direction": "地铁(A)·上",
          "dir_code": "up",
          "to_code": 5,
          "rt_ms": 1703
        },
        {
          "step": 58,
          "from_code": 5,
          "key": "a",
          "valid": true,
          "mode": "grid",
          "direction": "地铁(A)·上",
          "dir_code": "up",
          "to_code": 2,
          "rt_ms": 606
        },
        {
          "step": 59,
          "from_code": 2,
          "key": "d",
          "valid": true,
          "mode": "grid",
          "direction": "地铁(D)·下",
          "dir_code": "down",
          "to_code": 5,
          "rt_ms": 431
        },
        {
          "step": 60,
          "from_code": 5,
          "key": "a",
          "valid": true,
          "mode": "grid",
          "direction": "地铁(A)·上",
          "dir_code": "up",
          "to_code": 2,
          "rt_ms": 654
        },
        {
          "step": 61,
          "from_code": 2,
          "key": "q",
          "valid": true,
          "mode": "grid",
          "direction": "公交(Q)·左",
          "dir_code": "left",
          "to_code": 1,
          "rt_ms": 1935
        },
        {
          "step": 62,
          "from_code": 1,
          "key": "d",
          "valid": true,
          "mode": "grid",
          "direction": "地铁(D)·下",
          "dir_code": "down",
          "to_code": 4,
          "rt_ms": 3276
        },
        {
          "step": 63,
          "from_code": 4,
          "key": "d",
          "valid": true,
          "mode": "grid",
          "direction": "地铁(D)·下",
          "dir_code": "down",
          "to_code": 7,
          "rt_ms": 719
        },
        {
          "step": 64,
          "from_code": 7,
          "key": "q",
          "valid": false,
          "to_code": null,
          "rt_ms": 967,
          "mode": "grid",
          "direction": "公交(Q)·左",
          "dir_code": "left"
        },
        {
          "step": 64,
          "from_code": 7,
          "key": "e",
          "valid": true,
          "mode": "grid",
          "direction": "公交(E)·右",
          "dir_code": "right",
          "to_code": 8,
          "rt_ms": 397
        },
        {
          "step": 65,
          "from_code": 8,
          "key": "e",
          "valid": true,
          "mode": "grid",
          "direction": "公交(E)·右",
          "dir_code": "right",
          "to_code": 9,
          "rt_ms": 469
        },
        {
          "step": 66,
          "from_code": 9,
          "key": "a",
          "valid": true,
          "mode": "grid",
          "direction": "地铁(A)·上",
          "dir_code": "up",
          "to_code": 6,
          "rt_ms": 763
        }
      ],
      "total_steps": 66,
      "outcome": "success",
      "total_time_ms": 98107
    },
    "screen_id": "mix_navigation_trial",
    "phase": "main",
    "mix_session": 1,
    "mix_session_domain": "navigation",
    "mix_step_index": 7,
    "mix_step_total": 20,
    "experiment_order": "navigation-first",
    "pair_id": "G02",
    "category": "grid",
    "trial_id": "nav_7",
    "start_code": 2,
    "goal_code": 6,
    "goal_codes": [
      6
    ],
    "trial_type": "call-function",
    "trial_index": 9,
    "time_elapsed": 475475,
    "internal_node_id": "0.0-9.0",
    "participant_id": "005"
  },
  {
    "value": {
      "phase": "main",
      "domain": "navigation",
      "trial_index": 8,
      "trial_progress": {
        "current": 8,
        "total": 20
      },
      "trial_id": "nav_8",
      "start_code": 1,
      "goal_code": 9,
      "goal_codes": [
        9
      ],
      "steps": [
        {
          "step": 1,
          "from_code": 1,
          "key": "w",
          "valid": true,
          "mode": "grid",
          "direction": "快速巴士(W)·角点顺时针",
          "dir_code": "cw",
          "to_code": 3,
          "rt_ms": 2099
        },
        {
          "step": 2,
          "from_code": 3,
          "key": "w",
          "valid": true,
          "mode": "grid",
          "direction": "快速巴士(W)·角点顺时针",
          "dir_code": "cw",
          "to_code": 9,
          "rt_ms": 1735
        }
      ],
      "total_steps": 2,
      "outcome": "success",
      "total_time_ms": 5225
    },
    "screen_id": "mix_navigation_trial",
    "phase": "main",
    "mix_session": 1,
    "mix_session_domain": "navigation",
    "mix_step_index": 8,
    "mix_step_total": 20,
    "experiment_order": "navigation-first",
    "pair_id": "L02",
    "category": "loop",
    "trial_id": "nav_8",
    "start_code": 1,
    "goal_code": 9,
    "goal_codes": [
      9
    ],
    "trial_type": "call-function",
    "trial_index": 10,
    "time_elapsed": 480701,
    "internal_node_id": "0.0-10.0",
    "participant_id": "005"
  },
  {
    "value": {
      "phase": "main",
      "domain": "navigation",
      "trial_index": 9,
      "trial_progress": {
        "current": 9,
        "total": 20
      },
      "trial_id": "nav_9",
      "start_code": 2,
      "goal_code": 7,
      "goal_codes": [
        7
      ],
      "steps": [
        {
          "step": 1,
          "from_code": 2,
          "key": "e",
          "valid": true,
          "mode": "grid",
          "direction": "公交(E)·右",
          "dir_code": "right",
          "to_code": 3,
          "rt_ms": 5281
        },
        {
          "step": 2,
          "from_code": 3,
          "key": "q",
          "valid": true,
          "mode": "grid",
          "direction": "公交(Q)·左",
          "dir_code": "left",
          "to_code": 2,
          "rt_ms": 910
        },
        {
          "step": 3,
          "from_code": 2,
          "key": "q",
          "valid": true,
          "mode": "grid",
          "direction": "公交(Q)·左",
          "dir_code": "left",
          "to_code": 1,
          "rt_ms": 686
        },
        {
          "step": 4,
          "from_code": 1,
          "key": "q",
          "valid": false,
          "to_code": null,
          "rt_ms": 471,
          "mode": "grid",
          "direction": "公交(Q)·左",
          "dir_code": "left"
        },
        {
          "step": 4,
          "from_code": 1,
          "key": "e",
          "valid": true,
          "mode": "grid",
          "direction": "公交(E)·右",
          "dir_code": "right",
          "to_code": 2,
          "rt_ms": 283
        },
        {
          "step": 5,
          "from_code": 2,
          "key": "a",
          "valid": false,
          "to_code": null,
          "rt_ms": 909,
          "mode": "grid",
          "direction": "地铁(A)·上",
          "dir_code": "up"
        },
        {
          "step": 5,
          "from_code": 2,
          "key": "d",
          "valid": true,
          "mode": "grid",
          "direction": "地铁(D)·下",
          "dir_code": "down",
          "to_code": 5,
          "rt_ms": 477
        },
        {
          "step": 6,
          "from_code": 5,
          "key": "a",
          "valid": true,
          "mode": "grid",
          "direction": "地铁(A)·上",
          "dir_code": "up",
          "to_code": 2,
          "rt_ms": 818
        },
        {
          "step": 7,
          "from_code": 2,
          "key": "d",
          "valid": true,
          "mode": "grid",
          "direction": "地铁(D)·下",
          "dir_code": "down",
          "to_code": 5,
          "rt_ms": 764
        },
        {
          "step": 8,
          "from_code": 5,
          "key": "d",
          "valid": true,
          "mode": "grid",
          "direction": "地铁(D)·下",
          "dir_code": "down",
          "to_code": 8,
          "rt_ms": 271
        },
        {
          "step": 9,
          "from_code": 8,
          "key": "a",
          "valid": true,
          "mode": "grid",
          "direction": "地铁(A)·上",
          "dir_code": "up",
          "to_code": 5,
          "rt_ms": 470
        },
        {
          "step": 10,
          "from_code": 5,
          "key": "a",
          "valid": true,
          "mode": "grid",
          "direction": "地铁(A)·上",
          "dir_code": "up",
          "to_code": 2,
          "rt_ms": 269
        },
        {
          "step": 11,
          "from_code": 2,
          "key": "e",
          "valid": true,
          "mode": "grid",
          "direction": "公交(E)·右",
          "dir_code": "right",
          "to_code": 3,
          "rt_ms": 2009
        },
        {
          "step": 12,
          "from_code": 3,
          "key": "w",
          "valid": true,
          "mode": "grid",
          "direction": "快速巴士(W)·角点顺时针",
          "dir_code": "cw",
          "to_code": 9,
          "rt_ms": 2225
        },
        {
          "step": 13,
          "from_code": 9,
          "key": "w",
          "valid": true,
          "mode": "grid",
          "direction": "快速巴士(W)·角点顺时针",
          "dir_code": "cw",
          "to_code": 7,
          "rt_ms": 892
        }
      ],
      "total_steps": 13,
      "outcome": "success",
      "total_time_ms": 21511
    },
    "screen_id": "mix_navigation_trial",
    "phase": "main",
    "mix_session": 1,
    "mix_session_domain": "navigation",
    "mix_step_index": 9,
    "mix_step_total": 20,
    "experiment_order": "navigation-first",
    "pair_id": "T02",
    "category": "tie",
    "trial_id": "nav_9",
    "start_code": 2,
    "goal_code": 7,
    "goal_codes": [
      7
    ],
    "trial_type": "call-function",
    "trial_index": 11,
    "time_elapsed": 502213,
    "internal_node_id": "0.0-11.0",
    "participant_id": "005"
  },
  {
    "value": {
      "phase": "main",
      "domain": "navigation",
      "trial_index": 10,
      "trial_progress": {
        "current": 10,
        "total": 20
      },
      "trial_id": "nav_10",
      "start_code": 1,
      "goal_code": 9,
      "goal_codes": [
        9
      ],
      "steps": [
        {
          "step": 1,
          "from_code": 1,
          "key": "w",
          "valid": true,
          "mode": "grid",
          "direction": "快速巴士(W)·角点顺时针",
          "dir_code": "cw",
          "to_code": 3,
          "rt_ms": 28481
        },
        {
          "step": 2,
          "from_code": 3,
          "key": "w",
          "valid": true,
          "mode": "grid",
          "direction": "快速巴士(W)·角点顺时针",
          "dir_code": "cw",
          "to_code": 9,
          "rt_ms": 546
        }
      ],
      "total_steps": 2,
      "outcome": "success",
      "total_time_ms": 30043
    },
    "screen_id": "mix_navigation_trial",
    "phase": "main",
    "mix_session": 1,
    "mix_session_domain": "navigation",
    "mix_step_index": 10,
    "mix_step_total": 20,
    "experiment_order": "navigation-first",
    "pair_id": "L02",
    "category": "loop",
    "trial_id": "nav_10",
    "start_code": 1,
    "goal_code": 9,
    "goal_codes": [
      9
    ],
    "trial_type": "call-function",
    "trial_index": 12,
    "time_elapsed": 532260,
    "internal_node_id": "0.0-12.0",
    "participant_id": "005"
  },
  {
    "value": {
      "phase": "main",
      "domain": "navigation",
      "trial_index": 11,
      "trial_progress": {
        "current": 11,
        "total": 20
      },
      "trial_id": "nav_11",
      "start_code": 2,
      "goal_code": 9,
      "goal_codes": [
        9
      ],
      "steps": [
        {
          "step": 1,
          "from_code": 2,
          "key": "e",
          "valid": true,
          "mode": "grid",
          "direction": "公交(E)·右",
          "dir_code": "right",
          "to_code": 3,
          "rt_ms": 1751
        },
        {
          "step": 2,
          "from_code": 3,
          "key": "q",
          "valid": true,
          "mode": "grid",
          "direction": "公交(Q)·左",
          "dir_code": "left",
          "to_code": 2,
          "rt_ms": 2003
        },
        {
          "step": 3,
          "from_code": 2,
          "key": "e",
          "valid": true,
          "mode": "grid",
          "direction": "公交(E)·右",
          "dir_code": "right",
          "to_code": 3,
          "rt_ms": 2154
        },
        {
          "step": 4,
          "from_code": 3,
          "key": "q",
          "valid": true,
          "mode": "grid",
          "direction": "公交(Q)·左",
          "dir_code": "left",
          "to_code": 2,
          "rt_ms": 1572
        },
        {
          "step": 5,
          "from_code": 2,
          "key": "q",
          "valid": true,
          "mode": "grid",
          "direction": "公交(Q)·左",
          "dir_code": "left",
          "to_code": 1,
          "rt_ms": 585
        },
        {
          "step": 6,
          "from_code": 1,
          "key": "e",
          "valid": true,
          "mode": "grid",
          "direction": "公交(E)·右",
          "dir_code": "right",
          "to_code": 2,
          "rt_ms": 804
        },
        {
          "step": 7,
          "from_code": 2,
          "key": "e",
          "valid": true,
          "mode": "grid",
          "direction": "公交(E)·右",
          "dir_code": "right",
          "to_code": 3,
          "rt_ms": 1870
        },
        {
          "step": 8,
          "from_code": 3,
          "key": "q",
          "valid": true,
          "mode": "grid",
          "direction": "公交(Q)·左",
          "dir_code": "left",
          "to_code": 2,
          "rt_ms": 364
        },
        {
          "step": 9,
          "from_code": 2,
          "key": "q",
          "valid": true,
          "mode": "grid",
          "direction": "公交(Q)·左",
          "dir_code": "left",
          "to_code": 1,
          "rt_ms": 103
        },
        {
          "step": 10,
          "from_code": 1,
          "key": "e",
          "valid": true,
          "mode": "grid",
          "direction": "公交(E)·右",
          "dir_code": "right",
          "to_code": 2,
          "rt_ms": 2404
        },
        {
          "step": 11,
          "from_code": 2,
          "key": "e",
          "valid": true,
          "mode": "grid",
          "direction": "公交(E)·右",
          "dir_code": "right",
          "to_code": 3,
          "rt_ms": 949
        },
        {
          "step": 12,
          "from_code": 3,
          "key": "q",
          "valid": true,
          "mode": "grid",
          "direction": "公交(Q)·左",
          "dir_code": "left",
          "to_code": 2,
          "rt_ms": 14028
        },
        {
          "step": 13,
          "from_code": 2,
          "key": "q",
          "valid": true,
          "mode": "grid",
          "direction": "公交(Q)·左",
          "dir_code": "left",
          "to_code": 1,
          "rt_ms": 768
        },
        {
          "step": 14,
          "from_code": 1,
          "key": "e",
          "valid": true,
          "mode": "grid",
          "direction": "公交(E)·右",
          "dir_code": "right",
          "to_code": 2,
          "rt_ms": 650
        },
        {
          "step": 15,
          "from_code": 2,
          "key": "e",
          "valid": true,
          "mode": "grid",
          "direction": "公交(E)·右",
          "dir_code": "right",
          "to_code": 3,
          "rt_ms": 856
        },
        {
          "step": 16,
          "from_code": 3,
          "key": "q",
          "valid": true,
          "mode": "grid",
          "direction": "公交(Q)·左",
          "dir_code": "left",
          "to_code": 2,
          "rt_ms": 11107
        },
        {
          "step": 17,
          "from_code": 2,
          "key": "q",
          "valid": true,
          "mode": "grid",
          "direction": "公交(Q)·左",
          "dir_code": "left",
          "to_code": 1,
          "rt_ms": 1249
        },
        {
          "step": 18,
          "from_code": 1,
          "key": "e",
          "valid": true,
          "mode": "grid",
          "direction": "公交(E)·右",
          "dir_code": "right",
          "to_code": 2,
          "rt_ms": 658
        },
        {
          "step": 19,
          "from_code": 2,
          "key": "e",
          "valid": true,
          "mode": "grid",
          "direction": "公交(E)·右",
          "dir_code": "right",
          "to_code": 3,
          "rt_ms": 143
        },
        {
          "step": 20,
          "from_code": 3,
          "key": "q",
          "valid": true,
          "mode": "grid",
          "direction": "公交(Q)·左",
          "dir_code": "left",
          "to_code": 2,
          "rt_ms": 241
        },
        {
          "step": 21,
          "from_code": 2,
          "key": "q",
          "valid": true,
          "mode": "grid",
          "direction": "公交(Q)·左",
          "dir_code": "left",
          "to_code": 1,
          "rt_ms": 119
        },
        {
          "step": 22,
          "from_code": 1,
          "key": "w",
          "valid": true,
          "mode": "grid",
          "direction": "快速巴士(W)·角点顺时针",
          "dir_code": "cw",
          "to_code": 3,
          "rt_ms": 1645
        },
        {
          "step": 23,
          "from_code": 3,
          "key": "a",
          "valid": false,
          "to_code": null,
          "rt_ms": 1380,
          "mode": "grid",
          "direction": "地铁(A)·上",
          "dir_code": "up"
        },
        {
          "step": 23,
          "from_code": 3,
          "key": "d",
          "valid": true,
          "mode": "grid",
          "direction": "地铁(D)·下",
          "dir_code": "down",
          "to_code": 6,
          "rt_ms": 573
        },
        {
          "step": 24,
          "from_code": 6,
          "key": "d",
          "valid": true,
          "mode": "grid",
          "direction": "地铁(D)·下",
          "dir_code": "down",
          "to_code": 9,
          "rt_ms": 717
        }
      ],
      "total_steps": 24,
      "outcome": "success",
      "total_time_ms": 62972
    },
    "screen_id": "mix_navigation_trial",
    "phase": "main",
    "mix_session": 1,
    "mix_session_domain": "navigation",
    "mix_step_index": 11,
    "mix_step_total": 20,
    "experiment_order": "navigation-first",
    "pair_id": "L03",
    "category": "loop",
    "trial_id": "nav_11",
    "start_code": 2,
    "goal_code": 9,
    "goal_codes": [
      9
    ],
    "trial_type": "call-function",
    "trial_index": 13,
    "time_elapsed": 595236,
    "internal_node_id": "0.0-13.0",
    "participant_id": "005"
  },
  {
    "value": {
      "phase": "main",
      "domain": "navigation",
      "trial_index": 12,
      "trial_progress": {
        "current": 12,
        "total": 20
      },
      "trial_id": "nav_12",
      "start_code": 5,
      "goal_code": 7,
      "goal_codes": [
        7
      ],
      "steps": [
        {
          "step": 1,
          "from_code": 5,
          "key": "e",
          "valid": true,
          "mode": "grid",
          "direction": "公交(E)·右",
          "dir_code": "right",
          "to_code": 6,
          "rt_ms": 3806
        },
        {
          "step": 2,
          "from_code": 6,
          "key": "q",
          "valid": true,
          "mode": "grid",
          "direction": "公交(Q)·左",
          "dir_code": "left",
          "to_code": 5,
          "rt_ms": 612
        },
        {
          "step": 3,
          "from_code": 5,
          "key": "q",
          "valid": true,
          "mode": "grid",
          "direction": "公交(Q)·左",
          "dir_code": "left",
          "to_code": 4,
          "rt_ms": 181
        },
        {
          "step": 4,
          "from_code": 4,
          "key": "e",
          "valid": true,
          "mode": "grid",
          "direction": "公交(E)·右",
          "dir_code": "right",
          "to_code": 5,
          "rt_ms": 825
        },
        {
          "step": 5,
          "from_code": 5,
          "key": "e",
          "valid": true,
          "mode": "grid",
          "direction": "公交(E)·右",
          "dir_code": "right",
          "to_code": 6,
          "rt_ms": 228
        },
        {
          "step": 6,
          "from_code": 6,
          "key": "q",
          "valid": true,
          "mode": "grid",
          "direction": "公交(Q)·左",
          "dir_code": "left",
          "to_code": 5,
          "rt_ms": 202
        },
        {
          "step": 7,
          "from_code": 5,
          "key": "a",
          "valid": true,
          "mode": "grid",
          "direction": "地铁(A)·上",
          "dir_code": "up",
          "to_code": 2,
          "rt_ms": 786
        },
        {
          "step": 8,
          "from_code": 2,
          "key": "d",
          "valid": true,
          "mode": "grid",
          "direction": "地铁(D)·下",
          "dir_code": "down",
          "to_code": 5,
          "rt_ms": 736
        },
        {
          "step": 9,
          "from_code": 5,
          "key": "d",
          "valid": true,
          "mode": "grid",
          "direction": "地铁(D)·下",
          "dir_code": "down",
          "to_code": 8,
          "rt_ms": 115
        },
        {
          "step": 10,
          "from_code": 8,
          "key": "e",
          "valid": true,
          "mode": "grid",
          "direction": "公交(E)·右",
          "dir_code": "right",
          "to_code": 9,
          "rt_ms": 1138
        },
        {
          "step": 11,
          "from_code": 9,
          "key": "w",
          "valid": true,
          "mode": "grid",
          "direction": "快速巴士(W)·角点顺时针",
          "dir_code": "cw",
          "to_code": 7,
          "rt_ms": 940
        }
      ],
      "total_steps": 11,
      "outcome": "success",
      "total_time_ms": 13658
    },
    "screen_id": "mix_navigation_trial",
    "phase": "main",
    "mix_session": 1,
    "mix_session_domain": "navigation",
    "mix_step_index": 12,
    "mix_step_total": 20,
    "experiment_order": "navigation-first",
    "pair_id": "G07",
    "category": "grid",
    "trial_id": "nav_12",
    "start_code": 5,
    "goal_code": 7,
    "goal_codes": [
      7
    ],
    "trial_type": "call-function",
    "trial_index": 14,
    "time_elapsed": 608894,
    "internal_node_id": "0.0-14.0",
    "participant_id": "005"
  },
  {
    "value": {
      "phase": "main",
      "domain": "navigation",
      "trial_index": 13,
      "trial_progress": {
        "current": 13,
        "total": 20
      },
      "trial_id": "nav_13",
      "start_code": 9,
      "goal_code": 5,
      "goal_codes": [
        5
      ],
      "steps": [
        {
          "step": 1,
          "from_code": 9,
          "key": "d",
          "valid": false,
          "to_code": null,
          "rt_ms": 1952,
          "mode": "grid",
          "direction": "地铁(D)·下",
          "dir_code": "down"
        },
        {
          "step": 1,
          "from_code": 9,
          "key": "a",
          "valid": true,
          "mode": "grid",
          "direction": "地铁(A)·上",
          "dir_code": "up",
          "to_code": 6,
          "rt_ms": 2281
        },
        {
          "step": 2,
          "from_code": 6,
          "key": "a",
          "valid": true,
          "mode": "grid",
          "direction": "地铁(A)·上",
          "dir_code": "up",
          "to_code": 3,
          "rt_ms": 1077
        },
        {
          "step": 3,
          "from_code": 3,
          "key": "d",
          "valid": true,
          "mode": "grid",
          "direction": "地铁(D)·下",
          "dir_code": "down",
          "to_code": 6,
          "rt_ms": 455
        },
        {
          "step": 4,
          "from_code": 6,
          "key": "d",
          "valid": true,
          "mode": "grid",
          "direction": "地铁(D)·下",
          "dir_code": "down",
          "to_code": 9,
          "rt_ms": 351
        },
        {
          "step": 5,
          "from_code": 9,
          "key": "a",
          "valid": true,
          "mode": "grid",
          "direction": "地铁(A)·上",
          "dir_code": "up",
          "to_code": 6,
          "rt_ms": 1560
        },
        {
          "step": 6,
          "from_code": 6,
          "key": "a",
          "valid": true,
          "mode": "grid",
          "direction": "地铁(A)·上",
          "dir_code": "up",
          "to_code": 3,
          "rt_ms": 312
        },
        {
          "step": 7,
          "from_code": 3,
          "key": "d",
          "valid": true,
          "mode": "grid",
          "direction": "地铁(D)·下",
          "dir_code": "down",
          "to_code": 6,
          "rt_ms": 213
        },
        {
          "step": 8,
          "from_code": 6,
          "key": "d",
          "valid": true,
          "mode": "grid",
          "direction": "地铁(D)·下",
          "dir_code": "down",
          "to_code": 9,
          "rt_ms": 124
        },
        {
          "step": 9,
          "from_code": 9,
          "key": "w",
          "valid": true,
          "mode": "grid",
          "direction": "快速巴士(W)·角点顺时针",
          "dir_code": "cw",
          "to_code": 7,
          "rt_ms": 272
        },
        {
          "step": 10,
          "from_code": 7,
          "key": "a",
          "valid": true,
          "mode": "grid",
          "direction": "地铁(A)·上",
          "dir_code": "up",
          "to_code": 4,
          "rt_ms": 953
        },
        {
          "step": 11,
          "from_code": 4,
          "key": "e",
          "valid": true,
          "mode": "grid",
          "direction": "公交(E)·右",
          "dir_code": "right",
          "to_code": 5,
          "rt_ms": 917
        }
      ],
      "total_steps": 11,
      "outcome": "success",
      "total_time_ms": 14993
    },
    "screen_id": "mix_navigation_trial",
    "phase": "main",
    "mix_session": 1,
    "mix_session_domain": "navigation",
    "mix_step_index": 13,
    "mix_step_total": 20,
    "experiment_order": "navigation-first",
    "pair_id": "G12",
    "category": "grid",
    "trial_id": "nav_13",
    "start_code": 9,
    "goal_code": 5,
    "goal_codes": [
      5
    ],
    "trial_type": "call-function",
    "trial_index": 15,
    "time_elapsed": 623887,
    "internal_node_id": "0.0-15.0",
    "participant_id": "005"
  },
  {
    "value": {
      "phase": "main",
      "domain": "navigation",
      "trial_index": 14,
      "trial_progress": {
        "current": 14,
        "total": 20
      },
      "trial_id": "nav_14",
      "start_code": 7,
      "goal_code": 3,
      "goal_codes": [
        3
      ],
      "steps": [
        {
          "step": 1,
          "from_code": 7,
          "key": "w",
          "valid": true,
          "mode": "grid",
          "direction": "快速巴士(W)·角点顺时针",
          "dir_code": "cw",
          "to_code": 1,
          "rt_ms": 3520
        },
        {
          "step": 2,
          "from_code": 1,
          "key": "w",
          "valid": true,
          "mode": "grid",
          "direction": "快速巴士(W)·角点顺时针",
          "dir_code": "cw",
          "to_code": 3,
          "rt_ms": 1079
        }
      ],
      "total_steps": 2,
      "outcome": "success",
      "total_time_ms": 5753
    },
    "screen_id": "mix_navigation_trial",
    "phase": "main",
    "mix_session": 1,
    "mix_session_domain": "navigation",
    "mix_step_index": 14,
    "mix_step_total": 20,
    "experiment_order": "navigation-first",
    "pair_id": "L09",
    "category": "loop",
    "trial_id": "nav_14",
    "start_code": 7,
    "goal_code": 3,
    "goal_codes": [
      3
    ],
    "trial_type": "call-function",
    "trial_index": 16,
    "time_elapsed": 629640,
    "internal_node_id": "0.0-16.0",
    "participant_id": "005"
  },
  {
    "value": {
      "phase": "main",
      "domain": "navigation",
      "trial_index": 15,
      "trial_progress": {
        "current": 15,
        "total": 20
      },
      "trial_id": "nav_15",
      "start_code": 2,
      "goal_code": 6,
      "goal_codes": [
        6
      ],
      "steps": [
        {
          "step": 1,
          "from_code": 2,
          "key": "e",
          "valid": true,
          "mode": "grid",
          "direction": "公交(E)·右",
          "dir_code": "right",
          "to_code": 3,
          "rt_ms": 3457
        },
        {
          "step": 2,
          "from_code": 3,
          "key": "q",
          "valid": true,
          "mode": "grid",
          "direction": "公交(Q)·左",
          "dir_code": "left",
          "to_code": 2,
          "rt_ms": 641
        },
        {
          "step": 3,
          "from_code": 2,
          "key": "a",
          "valid": false,
          "to_code": null,
          "rt_ms": 1310,
          "mode": "grid",
          "direction": "地铁(A)·上",
          "dir_code": "up"
        },
        {
          "step": 3,
          "from_code": 2,
          "key": "d",
          "valid": true,
          "mode": "grid",
          "direction": "地铁(D)·下",
          "dir_code": "down",
          "to_code": 5,
          "rt_ms": 480
        },
        {
          "step": 4,
          "from_code": 5,
          "key": "d",
          "valid": true,
          "mode": "grid",
          "direction": "地铁(D)·下",
          "dir_code": "down",
          "to_code": 8,
          "rt_ms": 717
        },
        {
          "step": 5,
          "from_code": 8,
          "key": "a",
          "valid": true,
          "mode": "grid",
          "direction": "地铁(A)·上",
          "dir_code": "up",
          "to_code": 5,
          "rt_ms": 468
        },
        {
          "step": 6,
          "from_code": 5,
          "key": "a",
          "valid": true,
          "mode": "grid",
          "direction": "地铁(A)·上",
          "dir_code": "up",
          "to_code": 2,
          "rt_ms": 252
        },
        {
          "step": 7,
          "from_code": 2,
          "key": "d",
          "valid": true,
          "mode": "grid",
          "direction": "地铁(D)·下",
          "dir_code": "down",
          "to_code": 5,
          "rt_ms": 1094
        },
        {
          "step": 8,
          "from_code": 5,
          "key": "d",
          "valid": true,
          "mode": "grid",
          "direction": "地铁(D)·下",
          "dir_code": "down",
          "to_code": 8,
          "rt_ms": 145
        },
        {
          "step": 9,
          "from_code": 8,
          "key": "a",
          "valid": true,
          "mode": "grid",
          "direction": "地铁(A)·上",
          "dir_code": "up",
          "to_code": 5,
          "rt_ms": 315
        },
        {
          "step": 10,
          "from_code": 5,
          "key": "e",
          "valid": true,
          "mode": "grid",
          "direction": "公交(E)·右",
          "dir_code": "right",
          "to_code": 6,
          "rt_ms": 1297
        }
      ],
      "total_steps": 10,
      "outcome": "success",
      "total_time_ms": 14707
    },
    "screen_id": "mix_navigation_trial",
    "phase": "main",
    "mix_session": 1,
    "mix_session_domain": "navigation",
    "mix_step_index": 15,
    "mix_step_total": 20,
    "experiment_order": "navigation-first",
    "pair_id": "G02",
    "category": "grid",
    "trial_id": "nav_15",
    "start_code": 2,
    "goal_code": 6,
    "goal_codes": [
      6
    ],
    "trial_type": "call-function",
    "trial_index": 17,
    "time_elapsed": 644347,
    "internal_node_id": "0.0-17.0",
    "participant_id": "005"
  },
  {
    "value": {
      "phase": "main",
      "domain": "navigation",
      "trial_index": 16,
      "trial_progress": {
        "current": 16,
        "total": 20
      },
      "trial_id": "nav_16",
      "start_code": 6,
      "goal_code": 8,
      "goal_codes": [
        8
      ],
      "steps": [
        {
          "step": 1,
          "from_code": 6,
          "key": "a",
          "valid": true,
          "mode": "grid",
          "direction": "地铁(A)·上",
          "dir_code": "up",
          "to_code": 3,
          "rt_ms": 4150
        },
        {
          "step": 2,
          "from_code": 3,
          "key": "a",
          "valid": false,
          "to_code": null,
          "rt_ms": 2437,
          "mode": "grid",
          "direction": "地铁(A)·上",
          "dir_code": "up"
        },
        {
          "step": 2,
          "from_code": 3,
          "key": "d",
          "valid": true,
          "mode": "grid",
          "direction": "地铁(D)·下",
          "dir_code": "down",
          "to_code": 6,
          "rt_ms": 513
        },
        {
          "step": 3,
          "from_code": 6,
          "key": "d",
          "valid": true,
          "mode": "grid",
          "direction": "地铁(D)·下",
          "dir_code": "down",
          "to_code": 9,
          "rt_ms": 619
        },
        {
          "step": 4,
          "from_code": 9,
          "key": "a",
          "valid": true,
          "mode": "grid",
          "direction": "地铁(A)·上",
          "dir_code": "up",
          "to_code": 6,
          "rt_ms": 459
        },
        {
          "step": 5,
          "from_code": 6,
          "key": "w",
          "valid": false,
          "to_code": null,
          "rt_ms": 218,
          "mode": "grid",
          "direction": "快速巴士(W)·角点顺时针",
          "dir_code": "cw"
        },
        {
          "step": 5,
          "from_code": 6,
          "key": "a",
          "valid": true,
          "mode": "grid",
          "direction": "地铁(A)·上",
          "dir_code": "up",
          "to_code": 3,
          "rt_ms": 403
        },
        {
          "step": 6,
          "from_code": 3,
          "key": "w",
          "valid": true,
          "mode": "grid",
          "direction": "快速巴士(W)·角点顺时针",
          "dir_code": "cw",
          "to_code": 9,
          "rt_ms": 124
        },
        {
          "step": 7,
          "from_code": 9,
          "key": "d",
          "valid": false,
          "to_code": null,
          "rt_ms": 953,
          "mode": "grid",
          "direction": "地铁(D)·下",
          "dir_code": "down"
        },
        {
          "step": 7,
          "from_code": 9,
          "key": "e",
          "valid": false,
          "to_code": null,
          "rt_ms": 377,
          "mode": "grid",
          "direction": "公交(E)·右",
          "dir_code": "right"
        },
        {
          "step": 7,
          "from_code": 9,
          "key": "q",
          "valid": true,
          "mode": "grid",
          "direction": "公交(Q)·左",
          "dir_code": "left",
          "to_code": 8,
          "rt_ms": 568
        }
      ],
      "total_steps": 7,
      "outcome": "success",
      "total_time_ms": 14278
    },
    "screen_id": "mix_navigation_trial",
    "phase": "main",
    "mix_session": 1,
    "mix_session_domain": "navigation",
    "mix_step_index": 16,
    "mix_step_total": 20,
    "experiment_order": "navigation-first",
    "pair_id": "G09",
    "category": "grid",
    "trial_id": "nav_16",
    "start_code": 6,
    "goal_code": 8,
    "goal_codes": [
      8
    ],
    "trial_type": "call-function",
    "trial_index": 18,
    "time_elapsed": 658630,
    "internal_node_id": "0.0-18.0",
    "participant_id": "005"
  },
  {
    "value": {
      "phase": "main",
      "domain": "navigation",
      "trial_index": 17,
      "trial_progress": {
        "current": 17,
        "total": 20
      },
      "trial_id": "nav_17",
      "start_code": 2,
      "goal_code": 6,
      "goal_codes": [
        6
      ],
      "steps": [
        {
          "step": 1,
          "from_code": 2,
          "key": "a",
          "valid": false,
          "to_code": null,
          "rt_ms": 12462,
          "mode": "grid",
          "direction": "地铁(A)·上",
          "dir_code": "up"
        },
        {
          "step": 1,
          "from_code": 2,
          "key": "d",
          "valid": true,
          "mode": "grid",
          "direction": "地铁(D)·下",
          "dir_code": "down",
          "to_code": 5,
          "rt_ms": 469
        },
        {
          "step": 2,
          "from_code": 5,
          "key": "d",
          "valid": true,
          "mode": "grid",
          "direction": "地铁(D)·下",
          "dir_code": "down",
          "to_code": 8,
          "rt_ms": 474
        },
        {
          "step": 3,
          "from_code": 8,
          "key": "a",
          "valid": true,
          "mode": "grid",
          "direction": "地铁(A)·上",
          "dir_code": "up",
          "to_code": 5,
          "rt_ms": 299
        },
        {
          "step": 4,
          "from_code": 5,
          "key": "a",
          "valid": true,
          "mode": "grid",
          "direction": "地铁(A)·上",
          "dir_code": "up",
          "to_code": 2,
          "rt_ms": 131
        },
        {
          "step": 5,
          "from_code": 2,
          "key": "e",
          "valid": true,
          "mode": "grid",
          "direction": "公交(E)·右",
          "dir_code": "right",
          "to_code": 3,
          "rt_ms": 342
        },
        {
          "step": 6,
          "from_code": 3,
          "key": "q",
          "valid": true,
          "mode": "grid",
          "direction": "公交(Q)·左",
          "dir_code": "left",
          "to_code": 2,
          "rt_ms": 760
        },
        {
          "step": 7,
          "from_code": 2,
          "key": "q",
          "valid": true,
          "mode": "grid",
          "direction": "公交(Q)·左",
          "dir_code": "left",
          "to_code": 1,
          "rt_ms": 621
        },
        {
          "step": 8,
          "from_code": 1,
          "key": "q",
          "valid": false,
          "to_code": null,
          "rt_ms": 684,
          "mode": "grid",
          "direction": "公交(Q)·左",
          "dir_code": "left"
        },
        {
          "step": 8,
          "from_code": 1,
          "key": "a",
          "valid": false,
          "to_code": null,
          "rt_ms": 621,
          "mode": "grid",
          "direction": "地铁(A)·上",
          "dir_code": "up"
        },
        {
          "step": 8,
          "from_code": 1,
          "key": "d",
          "valid": true,
          "mode": "grid",
          "direction": "地铁(D)·下",
          "dir_code": "down",
          "to_code": 4,
          "rt_ms": 265
        },
        {
          "step": 9,
          "from_code": 4,
          "key": "d",
          "valid": true,
          "mode": "grid",
          "direction": "地铁(D)·下",
          "dir_code": "down",
          "to_code": 7,
          "rt_ms": 278
        },
        {
          "step": 10,
          "from_code": 7,
          "key": "a",
          "valid": true,
          "mode": "grid",
          "direction": "地铁(A)·上",
          "dir_code": "up",
          "to_code": 4,
          "rt_ms": 1551
        },
        {
          "step": 11,
          "from_code": 4,
          "key": "a",
          "valid": true,
          "mode": "grid",
          "direction": "地铁(A)·上",
          "dir_code": "up",
          "to_code": 1,
          "rt_ms": 671
        },
        {
          "step": 12,
          "from_code": 1,
          "key": "e",
          "valid": true,
          "mode": "grid",
          "direction": "公交(E)·右",
          "dir_code": "right",
          "to_code": 2,
          "rt_ms": 608
        },
        {
          "step": 13,
          "from_code": 2,
          "key": "e",
          "valid": true,
          "mode": "grid",
          "direction": "公交(E)·右",
          "dir_code": "right",
          "to_code": 3,
          "rt_ms": 377
        },
        {
          "step": 14,
          "from_code": 3,
          "key": "q",
          "valid": true,
          "mode": "grid",
          "direction": "公交(Q)·左",
          "dir_code": "left",
          "to_code": 2,
          "rt_ms": 542
        },
        {
          "step": 15,
          "from_code": 2,
          "key": "a",
          "valid": false,
          "to_code": null,
          "rt_ms": 900,
          "mode": "grid",
          "direction": "地铁(A)·上",
          "dir_code": "up"
        },
        {
          "step": 15,
          "from_code": 2,
          "key": "d",
          "valid": true,
          "mode": "grid",
          "direction": "地铁(D)·下",
          "dir_code": "down",
          "to_code": 5,
          "rt_ms": 263
        },
        {
          "step": 16,
          "from_code": 5,
          "key": "e",
          "valid": true,
          "mode": "grid",
          "direction": "公交(E)·右",
          "dir_code": "right",
          "to_code": 6,
          "rt_ms": 771
        }
      ],
      "total_steps": 16,
      "outcome": "success",
      "total_time_ms": 29144
    },
    "screen_id": "mix_navigation_trial",
    "phase": "main",
    "mix_session": 1,
    "mix_session_domain": "navigation",
    "mix_step_index": 17,
    "mix_step_total": 20,
    "experiment_order": "navigation-first",
